time,ax,ay,az,wx,wy,wz
2022-12-08 20:13:33.3000,1.28,0.48,-0.5,-0.02,0.24,-0.01
2022-12-08 20:13:33.3030,1.28,0.48,-0.5,-0.02,0.24,-0.01
2022-12-08 20:13:33.3120,1.89,-0.02,-0.64,-0.03,0.37,-0.01
2022-12-08 20:13:33.3220,-0.28,-0.03,0.15,-0.05,0.29,-0.0
2022-12-08 20:13:33.3320,-0.28,-0.03,0.15,-0.05,0.18,-0.01
2022-12-08 20:13:33.3420,-0.65,0.11,0.34,-0.06,0.08,-0.02
2022-12-08 20:13:33.3520,-0.62,0.12,0.35,-0.06,0.02,-0.02
2022-12-08 20:13:33.3620,-0.38,0.19,0.33,-0.07,0.04,-0.02
2022-12-08 20:13:33.3710,-0.16,0.29,0.31,-0.07,0.08,-0.02
2022-12-08 20:13:33.3820,-0.16,0.29,0.31,-0.07,0.1,-0.02
2022-12-08 20:13:33.3910,-0.36,0.23,0.27,-0.06,0.07,-0.04
2022-12-08 20:13:33.4010,-0.45,0.09,0.01,-0.04,-0.0,-0.05
2022-12-08 20:13:33.4110,-0.41,-0.1,-0.03,-0.04,-0.03,-0.05
2022-12-08 20:13:33.4210,0.12,-0.03,-0.4,-0.03,0.03,-0.05
2022-12-08 20:13:33.4310,0.12,-0.03,-0.4,-0.03,0.13,-0.07
2022-12-08 20:13:33.4410,0.18,-0.21,-0.39,-0.04,0.15,-0.07
2022-12-08 20:13:33.4510,0.03,-0.27,-0.22,-0.05,0.08,-0.08
2022-12-08 20:13:33.4610,-0.25,-0.01,0.28,-0.02,0.04,-0.09
2022-12-08 20:13:33.4710,-0.86,0.18,-0.07,0.0,-0.01,-0.12
2022-12-08 20:13:33.4810,-0.86,0.18,-0.07,0.01,-0.09,-0.16
2022-12-08 20:13:33.4910,-0.57,-0.18,-0.05,0.01,-0.09,-0.16
2022-12-08 20:13:33.5010,-0.27,-0.22,-0.25,0.02,0.01,-0.18
2022-12-08 20:13:33.5110,-0.29,-0.17,-0.49,0.03,0.05,-0.19
2022-12-08 20:13:33.5210,-0.15,0.13,-0.15,0.03,0.09,-0.19
2022-12-08 20:13:33.5310,0.16,0.64,0.23,-0.0,0.15,-0.16
2022-12-08 20:13:33.5410,0.33,0.33,0.24,-0.08,0.17,-0.16
2022-12-08 20:13:33.5510,0.2,-0.5,0.26,-0.16,0.07,-0.16
2022-12-08 20:13:33.5610,-0.14,0.01,0.99,-0.25,-0.02,-0.16
2022-12-08 20:13:33.5700,-0.34,0.39,1.3,-0.37,-0.06,-0.16
2022-12-08 20:13:33.5800,-0.34,0.15,1.43,-0.49,-0.12,-0.13
2022-12-08 20:13:33.5910,-0.29,0.22,1.84,-0.61,-0.16,-0.1
2022-12-08 20:13:33.6010,-0.14,0.7,2.21,-0.73,-0.15,-0.06
2022-12-08 20:13:33.6100,0.01,1.13,2.27,-0.87,-0.16,-0.03
2022-12-08 20:13:33.6200,0.04,1.11,2.4,-1.02,-0.21,-0.01
2022-12-08 20:13:33.6300,-0.12,0.74,2.51,-1.17,-0.4,-0.02
2022-12-08 20:13:33.6400,-0.47,0.28,2.8,-1.31,-0.74,-0.04
2022-12-08 20:13:33.6500,-0.97,0.11,3.17,-1.42,-1.26,-0.05
2022-12-08 20:13:33.6600,-1.64,-0.1,3.47,-1.48,-1.45,-0.0
2022-12-08 20:13:33.6700,-2.06,-0.2,2.68,-1.52,-1.64,0.07
2022-12-08 20:13:33.6800,-1.82,-0.06,2.78,-1.49,-1.74,0.13
2022-12-08 20:13:33.6900,-1.35,-0.17,2.93,-1.48,-1.29,0.23
2022-12-08 20:13:33.7000,-1.3,-0.07,1.47,-1.42,-0.95,0.3
2022-12-08 20:13:33.7100,-1.19,-0.32,1.63,-1.4,-0.88,0.28
2022-12-08 20:13:33.7200,-0.81,-0.85,2.59,-1.36,-0.92,0.21
2022-12-08 20:13:33.7300,-0.75,-1.39,3.58,-1.14,-0.71,0.24
2022-12-08 20:13:33.7400,-1.37,-1.66,4.82,-0.86,-0.14,0.4
2022-12-08 20:13:33.7500,-2.89,-1.16,4.75,-0.66,-0.05,0.43
2022-12-08 20:13:33.7590,-2.14,-0.47,5.22,-0.47,-0.38,0.37
2022-12-08 20:13:33.7700,0.75,0.37,6.48,-0.31,-0.55,0.4
2022-12-08 20:13:33.7790,2.14,1.35,5.12,-0.14,-0.38,0.45
2022-12-08 20:13:33.7890,1.81,1.31,4.66,0.03,0.04,0.45
2022-12-08 20:13:33.8000,1.03,0.54,3.81,0.15,0.09,0.35
2022-12-08 20:13:33.8090,1.02,-0.31,4.38,0.27,-0.14,0.27
2022-12-08 20:13:33.8190,0.68,-0.38,5.32,0.38,-0.38,0.21
2022-12-08 20:13:33.8290,-0.4,-0.17,4.98,0.46,-0.65,0.13
2022-12-08 20:13:33.8390,-0.64,-0.3,4.52,0.55,-0.82,0.06
2022-12-08 20:13:33.8490,0.11,-0.13,3.9,0.63,-0.77,0.01
2022-12-08 20:13:33.8590,0.96,0.18,2.95,0.72,-0.65,-0.02
2022-12-08 20:13:33.8690,1.63,0.45,2.22,0.79,-0.55,-0.06
2022-12-08 20:13:33.8790,1.87,0.49,1.72,0.83,-0.49,-0.07
2022-12-08 20:13:33.8890,1.62,0.61,1.22,0.88,-0.52,-0.08
2022-12-08 20:13:33.8990,1.23,0.76,1.03,0.89,-0.55,-0.09
2022-12-08 20:13:33.9090,0.94,0.86,0.73,0.9,-0.56,-0.12
2022-12-08 20:13:33.9190,0.8,0.93,0.53,0.92,-0.5,-0.14
2022-12-08 20:13:33.9290,0.8,0.85,0.48,0.96,-0.39,-0.14
2022-12-08 20:13:33.9390,0.79,0.68,0.37,1.01,-0.31,-0.15
2022-12-08 20:13:33.9490,0.61,0.64,0.34,1.05,-0.27,-0.15
2022-12-08 20:13:33.9580,0.16,0.76,-0.05,1.07,-0.23,-0.14
2022-12-08 20:13:33.9690,0.16,0.76,-0.05,1.08,-0.17,-0.14
2022-12-08 20:13:33.9780,0.23,0.78,-0.34,1.08,-0.07,-0.14
2022-12-08 20:13:33.9890,0.44,0.77,-0.77,1.06,0.04,-0.15
2022-12-08 20:13:33.9980,0.6,0.68,-1.08,1.06,0.14,-0.15
2022-12-08 20:13:34.0090,0.63,0.56,-1.33,1.06,0.23,-0.15
2022-12-08 20:13:34.0180,0.59,0.39,-1.48,1.05,0.3,-0.17
2022-12-08 20:13:34.0280,0.49,0.22,-1.5,1.0,0.37,-0.18
2022-12-08 20:13:34.0380,0.14,0.22,-1.73,0.94,0.41,-0.16
2022-12-08 20:13:34.0480,-0.4,0.46,-2.04,0.89,0.38,-0.13
2022-12-08 20:13:34.0580,-0.77,0.71,-1.91,0.86,0.34,-0.12
2022-12-08 20:13:34.0680,-0.77,0.86,-1.94,0.83,0.31,-0.1
2022-12-08 20:13:34.0780,-0.65,0.77,-2.0,0.79,0.29,-0.08
2022-12-08 20:13:34.0880,-0.54,0.56,-2.29,0.76,0.25,-0.05
2022-12-08 20:13:34.0980,-0.44,0.36,-2.39,0.71,0.2,-0.01
2022-12-08 20:13:34.1080,-0.42,0.25,-2.52,0.6,0.19,0.03
2022-12-08 20:13:34.1180,-0.42,0.33,-3.06,0.46,0.14,0.06
2022-12-08 20:13:34.1280,-0.5,0.68,-3.39,0.32,0.06,0.07
2022-12-08 20:13:34.1380,-0.57,0.92,-3.32,0.21,-0.02,0.11
2022-12-08 20:13:34.1480,-0.41,0.62,-2.98,0.11,-0.11,0.11
2022-12-08 20:13:34.1580,-0.41,0.62,-2.98,0.02,-0.2,0.13
2022-12-08 20:13:34.1680,-0.15,0.35,-2.9,-0.11,-0.19,0.17
2022-12-08 20:13:34.1780,-0.04,0.24,-3.42,-0.32,-0.06,0.23
2022-12-08 20:13:34.1880,0.09,0.23,-4.53,-0.51,0.02,0.28
2022-12-08 20:13:34.1970,0.16,0.57,-5.0,-0.71,0.13,0.37
2022-12-08 20:13:34.2070,-0.16,1.54,-5.38,-0.9,0.1,0.42
2022-12-08 20:13:34.2170,-0.18,2.28,-5.9,-1.04,-0.14,0.44
2022-12-08 20:13:34.2270,0.17,2.53,-5.16,-1.1,-0.42,0.45
2022-12-08 20:13:34.2370,0.37,2.44,-4.57,-1.2,-0.28,0.56
2022-12-08 20:13:34.2470,0.35,2.54,-6.0,-1.43,-0.06,0.54
2022-12-08 20:13:34.2570,0.35,3.09,-9.62,-1.42,-0.59,0.31
2022-12-08 20:13:34.2670,1.56,2.83,-5.95,-0.49,-2.86,0.13
2022-12-08 20:13:34.2770,2.08,1.11,10.06,0.5,-4.96,0.77
2022-12-08 20:13:34.2870,-4.26,-5.83,48.27,-0.43,1.41,1.22
2022-12-08 20:13:34.2970,-4.12,-7.44,-7.91,-1.74,5.23,0.16
2022-12-08 20:13:34.3080,-3.98,-17.47,-4.87,-2.78,0.55,-0.16
2022-12-08 20:13:34.3170,-3.98,-17.47,-4.87,-2.76,-5.61,1.18
2022-12-08 20:13:34.3270,-0.94,-5.65,20.58,-2.51,-4.33,1.64
2022-12-08 20:13:34.3370,3.22,4.29,0.84,-2.07,0.04,1.09
2022-12-08 20:13:34.3470,6.34,3.15,-14.18,-1.64,2.24,0.83
2022-12-08 20:13:34.3570,4.44,4.41,-9.21,-1.45,1.53,1.01
2022-12-08 20:13:34.3670,-1.25,3.4,-2.75,-1.35,-0.03,1.01
2022-12-08 20:13:34.3760,-5.74,-0.58,0.55,-1.22,-0.4,0.54
2022-12-08 20:13:34.3860,-7.06,-3.99,-1.73,-1.06,0.11,0.08
2022-12-08 20:13:34.3960,-4.65,-3.67,-4.42,-0.92,0.38,0.09
2022-12-08 20:13:34.4070,2.94,0.44,-2.29,-0.79,0.31,0.4
2022-12-08 20:13:34.4160,2.94,0.44,-2.29,-0.69,0.44,0.33
2022-12-08 20:13:34.4260,2.16,-0.59,-2.63,-0.61,0.31,0.12
2022-12-08 20:13:34.4360,-1.07,-1.27,-1.49,-0.59,-0.16,0.04
2022-12-08 20:13:34.4460,-2.02,-0.95,0.75,-0.62,-0.22,0.03
2022-12-08 20:13:34.4560,-1.03,-0.93,0.53,-0.62,0.07,0.05
2022-12-08 20:13:34.4660,0.41,-0.79,-0.26,-0.6,0.46,0.11
2022-12-08 20:13:34.4760,0.91,-0.3,-0.17,-0.61,0.67,0.13
2022-12-08 20:13:34.4860,-0.05,-0.01,0.51,-0.63,0.62,0.14
2022-12-08 20:13:34.4960,-0.05,-0.01,0.51,-0.64,0.54,0.13
2022-12-08 20:13:34.5060,-0.48,0.02,0.3,-0.66,0.44,0.09
2022-12-08 20:13:34.5160,-0.55,0.1,-0.09,-0.68,0.35,0.07
2022-12-08 20:13:34.5260,-0.3,0.29,-0.26,-0.69,0.34,0.07
2022-12-08 20:13:34.5360,-0.01,0.36,-0.32,-0.69,0.43,0.08
2022-12-08 20:13:34.5460,0.06,0.31,-0.25,-0.7,0.55,0.1
2022-12-08 20:13:34.5560,-0.17,0.4,-0.06,-0.7,0.56,0.15
2022-12-08 20:13:34.5660,-0.46,0.58,0.59,-0.71,0.53,0.19
2022-12-08 20:13:34.5760,-0.8,0.77,1.1,-0.73,0.51,0.2
2022-12-08 20:13:34.5860,-1.15,0.89,0.87,-0.75,0.45,0.14
2022-12-08 20:13:34.5950,-0.94,0.95,0.52,-0.76,0.36,0.09
2022-12-08 20:13:34.6050,-0.22,0.93,0.48,-0.77,0.28,0.14
2022-12-08 20:13:34.6150,0.29,0.8,0.68,-0.82,0.27,0.21
2022-12-08 20:13:34.6250,0.57,0.37,0.63,-0.86,0.27,0.26
2022-12-08 20:13:34.6350,0.54,0.2,0.67,-0.92,0.22,0.3
2022-12-08 20:13:34.6450,0.33,0.47,0.92,-1.0,0.08,0.33
2022-12-08 20:13:34.6550,0.18,0.7,1.19,-1.06,-0.09,0.35
2022-12-08 20:13:34.6650,-0.06,0.78,1.42,-1.08,-0.17,0.33
2022-12-08 20:13:34.6750,-0.47,0.69,1.06,-1.08,-0.21,0.26
2022-12-08 20:13:34.6850,-0.64,0.15,0.33,-1.07,-0.23,0.21
2022-12-08 20:13:34.6950,-0.25,-0.56,-0.11,-1.07,-0.1,0.23
2022-12-08 20:13:34.7050,0.65,-0.97,-0.57,-1.09,0.14,0.3
2022-12-08 20:13:34.7150,1.53,-0.93,-0.79,-1.12,0.34,0.35
2022-12-08 20:13:34.7250,2.0,-0.86,-0.38,-1.18,0.45,0.35
2022-12-08 20:13:34.7350,1.44,-0.85,0.08,-1.27,0.34,0.32
2022-12-08 20:13:34.7450,0.5,-1.1,0.91,-1.38,0.13,0.3
2022-12-08 20:13:34.7550,-0.25,-1.46,1.85,-1.5,-0.06,0.31
2022-12-08 20:13:34.7650,-0.37,-1.55,2.16,-1.64,-0.11,0.32
2022-12-08 20:13:34.7750,0.06,-1.62,2.11,-1.78,-0.02,0.38
2022-12-08 20:13:34.7850,0.63,-1.74,2.21,-1.95,0.16,0.44
2022-12-08 20:13:34.7950,0.87,-2.18,2.29,-2.12,0.37,0.49
2022-12-08 20:13:34.8050,0.67,-2.73,2.55,-2.29,0.57,0.55
2022-12-08 20:13:34.8150,0.32,-3.02,3.0,-2.48,0.77,0.65
2022-12-08 20:13:34.8250,0.33,-3.3,3.7,-2.69,1.03,0.76
2022-12-08 20:13:34.8340,0.7,-3.81,4.21,-2.9,1.38,0.82
2022-12-08 20:13:34.8450,0.92,-4.98,4.88,-3.01,1.81,0.82
2022-12-08 20:13:34.8540,0.49,-7.26,5.74,-3.13,2.34,0.82
2022-12-08 20:13:34.8660,-0.92,-10.56,4.95,-3.31,2.73,0.85
2022-12-08 20:13:34.8750,-2.31,-13.91,5.16,-3.43,2.65,0.79
2022-12-08 20:13:34.8850,-2.35,-16.24,6.93,-3.36,1.48,0.4
2022-12-08 20:13:34.8950,-1.32,-18.12,10.87,-3.32,0.41,0.33
2022-12-08 20:13:34.9040,-2.99,-12.78,7.63,-3.32,0.69,0.58
2022-12-08 20:13:34.9140,-2.99,-12.78,7.63,-3.38,1.12,0.51
2022-12-08 20:13:34.9240,-0.36,-10.6,7.48,-3.02,1.11,0.58
2022-12-08 20:13:34.9340,1.43,-7.77,10.52,-2.71,1.33,0.84
2022-12-08 20:13:34.9440,-1.41,-4.46,9.19,-2.38,0.86,0.7
2022-12-08 20:13:34.9540,-3.81,-4.6,7.68,-1.9,0.26,0.6
2022-12-08 20:13:34.9640,-5.49,-4.38,9.31,-1.53,0.21,0.37
2022-12-08 20:13:34.9740,-4.71,-3.94,5.5,-1.39,0.16,0.1
2022-12-08 20:13:34.9840,-2.22,-2.9,2.5,-0.83,-0.41,-0.31
2022-12-08 20:13:34.9940,1.69,-3.81,12.6,-0.33,0.01,-0.21
2022-12-08 20:13:35.0030,7.03,0.83,10.66,0.21,-0.19,-0.02
2022-12-08 20:13:35.0130,7.03,0.83,10.66,0.59,-0.1,-0.17
2022-12-08 20:13:35.0230,4.23,0.69,7.91,0.94,-0.17,-0.5
2022-12-08 20:13:35.0330,1.26,0.46,6.87,1.33,-0.77,-0.66
2022-12-08 20:13:35.0430,0.24,1.5,8.76,1.73,-1.5,-0.78
2022-12-08 20:13:35.0530,-0.03,1.45,9.54,2.05,-1.87,-0.97
2022-12-08 20:13:35.0630,-0.27,0.61,8.2,2.35,-2.01,-1.15
2022-12-08 20:13:35.0730,0.03,0.57,6.67,2.64,-2.06,-1.27
2022-12-08 20:13:35.0830,0.7,0.96,6.0,2.94,-1.96,-1.4
2022-12-08 20:13:35.0930,1.16,0.97,5.33,3.25,-1.77,-1.53
2022-12-08 20:13:35.1030,1.57,0.69,5.02,3.54,-1.57,-1.65
2022-12-08 20:13:35.1130,1.84,0.37,4.3,3.8,-1.33,-1.74
2022-12-08 20:13:35.1230,1.64,-0.02,3.41,4.03,-1.09,-1.75
2022-12-08 20:13:35.1330,1.39,-0.1,2.5,4.23,-0.87,-1.71
2022-12-08 20:13:35.1430,1.14,-0.05,1.77,4.42,-0.68,-1.66
2022-12-08 20:13:35.1530,-0.1,-0.19,1.15,4.63,-0.58,-1.63
2022-12-08 20:13:35.1630,-0.1,-0.19,1.15,4.83,-0.5,-1.61
2022-12-08 20:13:35.1730,-0.68,-0.73,0.62,5.02,-0.51,-1.62
2022-12-08 20:13:35.1820,-1.19,-1.35,0.0,5.22,-0.58,-1.61
2022-12-08 20:13:35.1930,-1.86,-1.86,-0.45,5.36,-0.62,-1.57
2022-12-08 20:13:35.2030,-2.84,-2.29,-1.47,5.44,-0.78,-1.57
2022-12-08 20:13:35.2120,-3.85,-2.78,-2.69,5.46,-1.03,-1.59
2022-12-08 20:13:35.2220,-4.53,-3.41,-3.27,5.46,-1.18,-1.59
2022-12-08 20:13:35.2320,-4.83,-3.93,-4.36,5.4,-1.09,-1.62
2022-12-08 20:13:35.2420,-4.44,-4.38,-6.19,5.28,-0.82,-1.66
2022-12-08 20:13:35.2520,-3.33,-4.58,-8.0,5.11,-0.39,-1.62
2022-12-08 20:13:35.2620,-2.22,-4.47,-9.37,4.92,0.13,-1.48
2022-12-08 20:13:35.2720,-1.79,-4.36,-9.96,4.7,0.59,-1.32
2022-12-08 20:13:35.2820,-1.88,-4.83,-9.88,4.42,0.92,-1.17
2022-12-08 20:13:35.2920,-2.26,-5.55,-9.57,4.08,1.16,-1.04
2022-12-08 20:13:35.3020,-3.78,-5.14,-10.24,3.71,1.23,-0.92
2022-12-08 20:13:35.3120,-3.78,-5.14,-10.24,3.31,1.14,-0.79
2022-12-08 20:13:35.3220,-4.4,-4.03,-10.69,2.83,0.92,-0.65
2022-12-08 20:13:35.3320,-4.37,-2.7,-11.16,2.28,0.73,-0.45
2022-12-08 20:13:35.3420,-3.54,-1.36,-11.82,1.65,0.61,-0.23
2022-12-08 20:13:35.3520,-2.52,0.04,-13.0,1.05,0.49,-0.04
2022-12-08 20:13:35.3620,-2.02,0.94,-13.08,0.46,0.4,0.18
2022-12-08 20:13:35.3720,-2.01,1.58,-12.95,-0.1,0.29,0.38
2022-12-08 20:13:35.3820,-2.12,1.7,-12.52,-0.58,0.17,0.57
2022-12-08 20:13:35.3920,-2.14,1.66,-11.68,-0.99,0.0,0.73
2022-12-08 20:13:35.4010,-2.51,1.2,-9.69,-1.31,-0.3,0.82
2022-12-08 20:13:35.4110,-2.51,1.2,-9.69,-1.71,-0.67,0.96
2022-12-08 20:13:35.4210,-2.76,1.06,-10.36,-2.16,-1.4,0.88
2022-12-08 20:13:35.4310,-2.26,0.52,-10.5,-2.39,-2.01,0.9
2022-12-08 20:13:35.4410,-1.79,0.65,-10.68,-2.37,-3.17,0.77
2022-12-08 20:13:35.4510,-0.35,-0.15,-7.55,-1.46,-7.83,0.05
2022-12-08 20:13:35.4610,2.47,-6.33,27.07,-1.33,-5.65,0.3
2022-12-08 20:13:35.4710,3.48,-7.82,25.02,-1.78,0.8,-0.46
2022-12-08 20:13:35.4810,5.06,-7.8,-29.71,-2.4,1.37,-0.35
2022-12-08 20:13:35.4910,1.99,-7.14,-17.84,-2.62,-1.56,1.72
2022-12-08 20:13:35.5010,-4.86,-3.33,-0.25,-2.76,-3.36,2.18
2022-12-08 20:13:35.5110,-4.96,-6.36,0.28,-2.59,-1.52,1.25
2022-12-08 20:13:35.5210,2.13,-5.37,-6.39,-2.31,1.57,1.62
2022-12-08 20:13:35.5310,4.22,2.95,-11.58,-2.01,1.71,1.67
2022-12-08 20:13:35.5410,0.97,3.63,-6.12,-1.78,1.11,1.39
2022-12-08 20:13:35.5510,-2.48,-0.62,-2.82,-1.61,0.89,1.24
2022-12-08 20:13:35.5610,-5.48,-1.16,-4.7,-1.51,0.16,0.82
2022-12-08 20:13:35.5700,-4.42,-3.1,-2.41,-1.39,-0.2,0.66
2022-12-08 20:13:35.5810,-3.48,-2.09,-1.57,-1.27,-0.28,0.49
2022-12-08 20:13:35.5910,-2.09,-0.57,-1.71,-1.1,-0.16,0.44
2022-12-08 20:13:35.6000,-0.23125167801976204,0.3,-1.62,-0.93,0.05,0.41
2022-12-08 20:13:35.6110,-0.24,0.3,-1.62,-0.81,0.22,0.31
2022-12-08 20:13:35.6200,-0.38,-1.03,-2.02,-0.75,0.09,0.28
2022-12-08 20:13:35.6300,-0.1,-1.7,-1.48,-0.72,-0.06,0.33
2022-12-08 20:13:35.6400,0.62,-1.52,-0.67,-0.69,0.1,0.37
2022-12-08 20:13:35.6500,0.6,-0.92,-1.03,-0.68,0.28,0.31
2022-12-08 20:13:35.6600,-0.34,-0.43,-1.19,-0.65,0.11,0.22
2022-12-08 20:13:35.6700,-1.59,0.17,-0.4,-0.63,-0.16,0.1
2022-12-08 20:13:35.6800,-1.8,0.17,0.26,-0.62,-0.21,0.0
2022-12-08 20:13:35.6900,-0.6,-0.08,0.04,-0.63,-0.08,0.01
2022-12-08 20:13:35.7000,0.77,-0.56,0.24,-0.65,0.14,0.09
2022-12-08 20:13:35.7100,0.77,-0.56,0.24,-0.69,0.41,0.22
2022-12-08 20:13:35.7200,1.41,-0.55,-0.29,-0.71,0.53,0.31
2022-12-08 20:13:35.7300,1.33,-0.12,-0.25,-0.73,0.54,0.35
2022-12-08 20:13:35.7400,0.91,0.37,-0.21,-0.74,0.46,0.36
2022-12-08 20:13:35.7500,0.51,0.51,0.17,-0.74,0.43,0.35
2022-12-08 20:13:35.7600,0.04,0.31,0.35,-0.74,0.4,0.31
2022-12-08 20:13:35.7700,-0.2,0.03,0.46,-0.75,0.35,0.29
2022-12-08 20:13:35.7800,-0.17,0.03,0.67,-0.75,0.33,0.31
2022-12-08 20:13:35.7900,-0.16,0.34,0.6,-0.75,0.36,0.32
2022-12-08 20:13:35.7990,-0.06,0.52,0.23,-0.75,0.37,0.29
2022-12-08 20:13:35.8090,0.03,0.54,-0.31,-0.76,0.29,0.26
2022-12-08 20:13:35.8190,-0.03,0.45,-0.19,-0.78,0.14,0.26
2022-12-08 20:13:35.8290,0.03,0.42,0.32,-0.83,0.05,0.29
2022-12-08 20:13:35.8390,0.38,0.35,0.67,-0.88,0.07,0.34
2022-12-08 20:13:35.8490,0.83,0.31,0.79,-0.97,0.15,0.41
2022-12-08 20:13:35.8590,1.1,0.32,0.82,-1.06,0.2,0.45
2022-12-08 20:13:35.8690,1.05,0.21,1.07,-1.16,0.24,0.48
2022-12-08 20:13:35.8790,0.73,0.07,1.39,-1.29,0.27,0.52
2022-12-08 20:13:35.8890,0.52,-0.08,1.73,-1.45,0.27,0.53
2022-12-08 20:13:35.8990,0.61,-0.96,2.51,-1.6,0.22,0.56
2022-12-08 20:13:35.9090,0.61,-0.96,2.51,-1.77,0.18,0.62
2022-12-08 20:13:35.9190,0.37,-1.68,2.72,-1.96,0.1,0.69
2022-12-08 20:13:35.9290,0.52,-2.23,2.59,-2.17,-0.03,0.76
2022-12-08 20:13:35.9390,1.1,-2.51,2.61,-2.4,-0.09,0.85
2022-12-08 20:13:35.9490,1.59,-2.5,2.93,-2.64,0.01,0.99
2022-12-08 20:13:35.9590,1.81,-2.66,3.36,-2.86,0.25,1.17
2022-12-08 20:13:35.9690,1.86,-3.25,4.15,-3.03,0.68,1.34
2022-12-08 20:13:35.9790,1.68,-4.3,4.74,-3.2,1.22,1.41
2022-12-08 20:13:35.9890,1.13,-6.16,4.32,-3.35,1.77,1.33
2022-12-08 20:13:35.9980,0.23,-9.3,4.82,-3.48,2.32,1.26
2022-12-08 20:13:36.0080,-0.99,-13.35,5.43,-3.61,2.54,1.2
2022-12-08 20:13:36.0180,-2.12,-18.11,6.58,-3.57,1.73,0.84
2022-12-08 20:13:36.0290,-2.2,-21.92,10.05,-3.44,0.37,0.35
2022-12-08 20:13:36.0380,-1.64,-21.75,13.46,-3.62,0.82,0.94
2022-12-08 20:13:36.0480,-3.81,-13.1,8.05,-3.52,1.04,1.1
2022-12-08 20:13:36.0580,-0.58,-7.89,8.35,-3.09,1.55,1.09
2022-12-08 20:13:36.0680,4.38,-6.53,10.17,-2.62,2.14,1.3
2022-12-08 20:13:36.0780,2.88,-4.11,8.84,-2.08,2.01,1.21
2022-12-08 20:13:36.0880,-0.82,-4.39,9.19,-1.67,2.11,1.09
2022-12-08 20:13:36.0980,-2.86,-2.13,0.43,-1.27,2.2,0.88
2022-12-08 20:13:36.1080,-2.86,-2.13,0.43,-0.67,0.97,0.39
2022-12-08 20:13:36.1180,0.55,-3.59,15.13,-0.09,0.77,0.36
2022-12-08 20:13:36.1280,6.08,-1.08,13.5,0.38,0.71,0.32
2022-12-08 20:13:36.1380,7.44,-0.35,9.96,0.75,0.84,0.08
2022-12-08 20:13:36.1480,5.31,-0.08,8.28,1.21,0.58,-0.16
2022-12-08 20:13:36.1580,2.49,0.94,8.79,1.66,-0.13,-0.36
2022-12-08 20:13:36.1680,0.97,1.35,10.58,2.07,-0.7,-0.6
2022-12-08 20:13:36.1780,0.67,0.85,9.01,2.41,-1.06,-0.9
2022-12-08 20:13:36.1880,1.53,0.11,7.2,2.74,-1.14,-1.09
2022-12-08 20:13:36.1980,3.42,0.12,5.11,3.04,-1.07,-1.19
2022-12-08 20:13:36.2080,3.42,0.12,5.11,3.34,-0.98,-1.28
2022-12-08 20:13:36.2170,3.46,0.02,4.48,3.6,-0.92,-1.38
2022-12-08 20:13:36.2270,2.91,-0.23,3.58,3.83,-0.81,-1.49
2022-12-08 20:13:36.2370,2.17,-0.48,2.61,4.05,-0.65,-1.57
2022-12-08 20:13:36.2470,1.62,-0.64,1.86,4.26,-0.48,-1.62
2022-12-08 20:13:36.2570,1.56,-0.87,1.58,4.45,-0.19,-1.61
2022-12-08 20:13:36.2670,1.32,-0.87,0.89,4.63,0.1,-1.58
2022-12-08 20:13:36.2770,0.68,-0.95,0.26,4.81,0.25,-1.51
2022-12-08 20:13:36.2870,-0.22,-1.17,-0.1,4.95,0.26,-1.42
2022-12-08 20:13:36.2970,-1.21,-1.47,-0.58,5.05,0.11,-1.34
2022-12-08 20:13:36.3070,-1.97,-1.85,-1.07,5.13,-0.16,-1.31
2022-12-08 20:13:36.3170,-2.43,-2.26,-1.46,5.16,-0.41,-1.31
2022-12-08 20:13:36.3270,-2.78,-2.72,-2.09,5.18,-0.6,-1.32
2022-12-08 20:13:36.3370,-3.05,-3.04,-3.0,5.16,-0.65,-1.33
2022-12-08 20:13:36.3470,-3.12,-3.26,-3.91,5.12,-0.59,-1.36
2022-12-08 20:13:36.3560,-2.89,-3.39,-5.04,5.03,-0.33,-1.4
2022-12-08 20:13:36.3670,-2.19,-3.58,-6.3,4.93,0.07,-1.38
2022-12-08 20:13:36.3770,-1.32,-3.73,-7.37,4.79,0.54,-1.29
2022-12-08 20:13:36.3870,-0.6,-3.83,-8.2,4.62,1.03,-1.17
2022-12-08 20:13:36.3970,-0.43,-4.01,-8.93,4.4,1.52,-1.02
2022-12-08 20:13:36.4070,-0.68,-4.24,-9.3,4.18,1.95,-0.9
2022-12-08 20:13:36.4160,-1.25,-4.28,-9.45,3.95,2.2,-0.81
2022-12-08 20:13:36.4270,-1.88,-4.27,-9.3,3.6,2.33,-0.68
2022-12-08 20:13:36.4360,-2.43,-3.65,-10.06,3.21,2.2,-0.55
2022-12-08 20:13:36.4460,-2.93,-2.79,-10.12,2.82,1.85,-0.46
2022-12-08 20:13:36.4560,-2.93,-2.04,-9.93,2.4,1.39,-0.43
2022-12-08 20:13:36.4660,-2.26,-1.59,-10.36,1.92,1.05,-0.39
2022-12-08 20:13:36.4760,-1.17,-1.27,-10.88,1.43,0.93,-0.24
2022-12-08 20:13:36.4860,-0.3,-0.54,-11.53,0.94,0.87,-0.04
2022-12-08 20:13:36.4960,-0.2,1.12,-11.77,0.44,0.79,0.17
2022-12-08 20:13:36.5070,-0.77,1.55,-11.09,-0.01,0.57,0.37
2022-12-08 20:13:36.5160,-0.77,1.55,-11.09,-0.39,0.26,0.53
2022-12-08 20:13:36.5260,-1.55,1.31,-9.91,-0.77,-0.09,0.61
2022-12-08 20:13:36.5360,-2.02,0.69,-9.47,-1.07,-0.67,0.7
2022-12-08 20:13:36.5460,-1.89,0.33,-7.74,-1.39,-0.93,0.95
2022-12-08 20:13:36.5560,-1.95,0.3,-9.97,-1.77,-1.5,0.83
2022-12-08 20:13:36.5660,-1.95,0.3,-9.97,-2.16,-2.05,0.68
2022-12-08 20:13:36.5760,0.53,0.31,-10.71,-2.33,-2.53,0.73
2022-12-08 20:13:36.5860,2.33,-2.33,-0.88,-2.05,-4.31,0.52
2022-12-08 20:13:36.5960,2.63,-7.51,32.49,-1.2,-7.62,0.29
2022-12-08 20:13:36.6060,4.0,-7.78,6.2,-1.21,-2.18,0.29
2022-12-08 20:13:36.6160,4.0,-7.78,6.2,-1.86,1.82,-0.75
2022-12-08 20:13:36.6260,3.2287313264608386,-4.21,-6.45,-2.23,-0.11,-0.28
2022-12-08 20:13:36.6350,3.22,-4.21,-6.45,-2.21,-2.98,1.78
2022-12-08 20:13:36.6450,-2.32,-1.33,4.33,-2.31,-2.49,1.81
2022-12-08 20:13:36.6550,2.06,-2.52,-9.53,-2.35,0.48,1.25
2022-12-08 20:13:36.6650,2.06,-2.52,-9.53,-2.28,1.53,1.41
2022-12-08 20:13:36.6750,-0.4,2.19,-9.35,-2.04,0.45,1.55
2022-12-08 20:13:36.6850,-3.29,0.6,-3.12,-1.86,-0.14,1.3
2022-12-08 20:13:36.6950,-4.33,-2.39,-3.49,-1.7,0.35,0.94
2022-12-08 20:13:36.7050,-2.42,-2.11,-3.82,-1.5,0.28,0.58
2022-12-08 20:13:36.7150,-2.42,-2.11,-3.82,-1.34,0.04,0.59
2022-12-08 20:13:36.7250,-1.36,-0.23,-2.6,-1.18,-0.08,0.57
2022-12-08 20:13:36.7350,-0.18,-0.14,-1.42,-1.06,0.19,0.54
2022-12-08 20:13:36.7450,0.43,-0.77,-0.89,-1.01,0.47,0.49
2022-12-08 20:13:36.7550,0.65,-1.19,-1.49,-0.98,0.34,0.51
2022-12-08 20:13:36.7650,-1.83,-0.6,-0.34,-0.93,0.07,0.45
2022-12-08 20:13:36.7750,-1.83,-0.6,-0.34,-0.88,-0.1,0.28
2022-12-08 20:13:36.7850,-2.49,-0.27,-0.32,-0.84,-0.1,0.14
2022-12-08 20:13:36.7950,-0.46,0.25,-0.7,-0.81,-0.06,0.12
2022-12-08 20:13:36.8040,-0.46,0.25,-0.7,-0.77,-0.01,0.14
2022-12-08 20:13:36.8140,-0.02,0.2,-0.6,-0.76,0.08,0.12
2022-12-08 20:13:36.8240,-0.3,-0.1,-0.56,-0.75,0.04,0.08
2022-12-08 20:13:36.8340,-0.63,-0.33,-0.38,-0.74,-0.07,0.05
2022-12-08 20:13:36.8440,-0.89,-0.24,-0.43,-0.7,-0.14,-0.0
2022-12-08 20:13:36.8540,-0.94,0.0,-0.66,-0.66,-0.05,0.0
2022-12-08 20:13:36.8640,-0.56,0.43,-0.64,-0.61,0.08,0.04
2022-12-08 20:13:36.8740,0.33,0.59,-0.86,-0.61,0.22,0.09
2022-12-08 20:13:36.8840,0.85,0.58,-1.03,-0.61,0.35,0.15
2022-12-08 20:13:36.8940,0.59,0.48,-0.71,-0.61,0.42,0.18
2022-12-08 20:13:36.9040,0.11,0.46,-0.38,-0.58,0.38,0.16
2022-12-08 20:13:36.9140,-0.3,0.26,0.35,-0.54,0.27,0.09
2022-12-08 20:13:36.9240,-0.61,-0.19,0.65,-0.52,0.15,0.03
2022-12-08 20:13:36.9340,-0.72,-0.62,0.39,-0.53,0.07,0.01
2022-12-08 20:13:36.9440,-0.47,-0.69,0.17,-0.54,0.05,0.03
2022-12-08 20:13:36.9540,0.11,-0.28,0.05,-0.57,0.1,0.06
2022-12-08 20:13:36.9640,0.64,0.13,-0.01,-0.6,0.18,0.07
2022-12-08 20:13:36.9740,0.59,0.29,0.25,-0.64,0.25,0.07
2022-12-08 20:13:36.9840,0.19,0.21,0.52,-0.7,0.23,0.08
2022-12-08 20:13:36.9940,-0.02,0.07,1.07,-0.8,0.17,0.13
2022-12-08 20:13:37.0040,0.23,0.11,1.58,-0.92,0.13,0.2
2022-12-08 20:13:37.0130,0.82,0.33,1.8,-1.03,0.2,0.23
2022-12-08 20:13:37.0230,1.12,0.31,2.04,-1.16,0.22,0.26
2022-12-08 20:13:37.0330,0.95,0.02,2.17,-1.31,0.16,0.31
2022-12-08 20:13:37.0430,0.6,-0.38,2.45,-1.49,0.15,0.37
2022-12-08 20:13:37.0530,0.51,-0.53,2.65,-1.69,0.19,0.44
2022-12-08 20:13:37.0630,0.79,-0.41,2.61,-1.89,0.22,0.5
2022-12-08 20:13:37.0730,1.02,-0.19,2.45,-2.06,0.17,0.54
2022-12-08 20:13:37.0830,1.06,-0.14,2.15,-2.22,0.06,0.55
2022-12-08 20:13:37.0930,1.31,-0.42,1.72,-2.37,-0.04,0.59
2022-12-08 20:13:37.1030,1.76,-0.89,1.17,-2.48,-0.05,0.68
2022-12-08 20:13:37.1130,1.95,-1.89,1.28,-2.61,0.2,0.8
2022-12-08 20:13:37.1230,1.54,-3.26,1.51,-2.76,0.46,0.89
2022-12-08 20:13:37.1330,1.22,-4.72,1.96,-2.92,0.68,0.97
2022-12-08 20:13:37.1430,0.93,-5.74,2.62,-3.09,0.88,1.0
2022-12-08 20:13:37.1530,0.35,-7.06,3.44,-3.27,1.0,0.92
2022-12-08 20:13:37.1640,-0.05,-9.21,4.9,-3.42,1.1,0.84
2022-12-08 20:13:37.1730,-1.98,-14.63,8.52,-3.53,1.19,0.86
2022-12-08 20:13:37.1830,-1.98,-14.63,8.52,-3.61,1.37,0.83
2022-12-08 20:13:37.1940,-1.52,-16.66,10.28,-3.63,1.61,0.61
2022-12-08 20:13:37.2030,-1.52,-16.66,11.49,-3.6,1.54,0.32
2022-12-08 20:13:37.2130,-0.56,-15.6,11.49,-3.6,1.59,0.26
2022-12-08 20:13:37.2220,-0.35,-13.07,11.87,-3.51,1.79,0.51
2022-12-08 20:13:37.2320,-0.7,-8.83,10.61,-3.22,1.6,0.58
2022-12-08 20:13:37.2430,0.41,-7.34,12.19,-2.85,1.96,0.75
2022-12-08 20:13:37.2520,-2.43,-5.05,9.33,-2.4,1.9,0.82
2022-12-08 20:13:37.2620,-2.43,-5.05,9.33,-1.87,1.54,0.66
2022-12-08 20:13:37.2720,-3.24,-5.03,10.0,-1.49,1.58,0.64
2022-12-08 20:13:37.2820,-3.04,-3.61,4.83,-0.95,0.54,0.51
2022-12-08 20:13:37.2940,0.58,-3.68,14.53,-0.43,-0.62,0.26
2022-12-08 20:13:37.3020,0.58,-3.68,14.53,0.03,-1.11,0.46
2022-12-08 20:13:37.3120,2.12,-0.77,11.27,0.45,-1.33,0.34
2022-12-08 20:13:37.3220,2.58,-0.35,10.24,0.89,-1.27,-0.06
2022-12-08 20:13:37.3320,2.87,-0.75,9.13,1.4,-1.23,-0.38
2022-12-08 20:13:37.3420,2.23,0.84,9.38,1.89,-1.38,-0.64
2022-12-08 20:13:37.3520,1.97,1.43,9.52,2.3,-1.35,-0.89
2022-12-08 20:13:37.3620,1.87,0.61,8.0,2.64,-1.27,-1.09
2022-12-08 20:13:37.3720,2.95,-0.23,5.46,2.94,-1.23,-1.19
2022-12-08 20:13:37.3820,2.95,-0.23,5.46,3.21,-1.22,-1.25
2022-12-08 20:13:37.3920,3.29,-0.15,4.78,3.47,-1.22,-1.32
2022-12-08 20:13:37.4020,3.2,-0.05,4.17,3.71,-1.26,-1.44
2022-12-08 20:13:37.4120,2.73,-0.29,3.68,3.93,-1.21,-1.53
2022-12-08 20:13:37.4210,1.9,-0.53,2.9,4.12,-1.21,-1.62
2022-12-08 20:13:37.4310,1.33,-0.82,2.57,4.31,-1.14,-1.67
2022-12-08 20:13:37.4410,0.92,-0.87,2.14,4.5,-0.96,-1.74
2022-12-08 20:13:37.4510,0.51,-0.99,1.53,4.67,-0.73,-1.79
2022-12-08 20:13:37.4610,0.09,-1.07,0.94,4.86,-0.64,-1.81
2022-12-08 20:13:37.4710,-0.1,-1.3,0.67,5.04,-0.62,-1.82
2022-12-08 20:13:37.4810,-0.39,-1.81,0.11,5.2,-0.62,-1.81
2022-12-08 20:13:37.4910,-1.26,-2.81,-1.71,5.34,-0.7,-1.78
2022-12-08 20:13:37.5010,-1.26,-2.81,-1.71,5.45,-0.81,-1.75
2022-12-08 20:13:37.5110,-1.74,-2.98,-2.7,5.54,-0.84,-1.78
2022-12-08 20:13:37.5210,-1.91,-3.27,-3.72,5.59,-0.72,-1.86
2022-12-08 20:13:37.5310,-1.55,-3.67,-4.99,5.58,-0.46,-1.92
2022-12-08 20:13:37.5410,-0.91,-4.18,-6.29,5.52,-0.1,-1.96
2022-12-08 20:13:37.5510,-0.23,-4.88,-7.54,5.39,0.26,-1.94
2022-12-08 20:13:37.5610,-0.06,-5.52,-8.81,5.18,0.52,-1.84
2022-12-08 20:13:37.5710,-1.03,-5.86,-9.94,4.91,0.6,-1.75
2022-12-08 20:13:37.5810,-2.64,-6.28,-10.44,4.55,0.58,-1.65
2022-12-08 20:13:37.5910,-4.22,-6.33,-11.42,4.12,0.54,-1.56
2022-12-08 20:13:37.6010,-4.22,-6.33,-11.42,3.65,0.53,-1.37
2022-12-08 20:13:37.6110,-4.17,-5.01,-11.91,3.15,0.55,-1.1
2022-12-08 20:13:37.6200,-4.06,-3.1,-13.04,2.59,0.56,-0.82
2022-12-08 20:13:37.6300,-4.17,-1.69,-14.13,1.89,0.6,-0.57
2022-12-08 20:13:37.6400,-4.3,-0.66,-15.84,1.08,0.59,-0.33
2022-12-08 20:13:37.6500,-4.18,0.47,-16.78,0.27,0.5,0.03
2022-12-08 20:13:37.6600,-4.05,1.97,-16.94,-0.39,0.3,0.45
2022-12-08 20:13:37.6700,-4.23,3.12,-15.63,-0.95,0.11,0.75
2022-12-08 20:13:37.6800,-4.92,2.99,-14.17,-1.37,-0.25,0.87
2022-12-08 20:13:37.6900,-5.64,1.95,-12.55,-1.78,-0.45,0.99
2022-12-08 20:13:37.7000,-5.9,1.29,-11.73,-2.25,-0.94,1.03
2022-12-08 20:13:37.7100,-5.07,0.67,-13.06,-2.5,-1.73,1.19
2022-12-08 20:13:37.7200,-4.33,0.25,-12.1,-1.69,-5.9,0.87
2022-12-08 20:13:37.7300,-4.14,-4.66,9.61,-1.45,-5.82,0.68
2022-12-08 20:13:37.7400,-2.06,-11.66,37.21,-2.09,0.87,-0.18
2022-12-08 20:13:37.7500,8.59,-10.99,-23.42,-2.8,1.37,-0.78
2022-12-08 20:13:37.7600,6.33,-9.52,-21.19,-2.79,-2.24,1.3
2022-12-08 20:13:37.7700,-1.41,-4.6,1.02,-2.81,-3.56,2.96
2022-12-08 20:13:37.7800,-2.5,-4.99,-1.98,-2.78,-1.77,2.21
2022-12-08 20:13:37.7900,3.18,-5.18,-8.96,-2.6,0.85,1.71
2022-12-08 20:13:37.8000,5.78,0.72,-9.71,-2.25,1.75,2.24
2022-12-08 20:13:37.8090,1.83,6.16,-4.68,-1.96,1.18,2.4
2022-12-08 20:13:37.8190,-3.36,2.33,-3.16,-1.86,0.88,2.11
2022-12-08 20:13:37.8290,-6.05,-2.76,-4.98,-1.79,0.48,1.6
2022-12-08 20:13:37.8390,-7.82,-4.85,-5.54,-1.67,0.09,1.16
2022-12-08 20:13:37.8490,-8.18,-4.16,-2.65,-1.5,-0.05,0.67
2022-12-08 20:13:37.8590,-6.03,-1.58,-2.87,-1.29,-0.1,0.34
2022-12-08 20:13:37.8690,-2.77,0.17,-2.7,-1.08,-0.03,0.32
2022-12-08 20:13:37.8790,-0.81,1.26,-2.46,-0.93,0.05,0.4
2022-12-08 20:13:37.8890,1.38,-0.88,-2.0,-0.86,0.18,0.47
2022-12-08 20:13:37.8990,1.38,-0.88,-2.0,-0.82,0.28,0.44
2022-12-08 20:13:37.9090,-0.01,-1.91,-1.41,-0.77,0.16,0.35
2022-12-08 20:13:37.9190,-2.0,-0.8,-0.32,-0.69,-0.03,0.22
2022-12-08 20:13:37.9290,-2.0,-0.8,-0.32,-0.63,0.05,0.12
2022-12-08 20:13:37.9390,-0.34,-0.05,0.03,-0.6,0.05,0.1
2022-12-08 20:13:37.9490,-0.34,-0.05,0.03,-0.58,0.07,0.13
2022-12-08 20:13:37.9590,0.36,-0.22,-0.12,-0.57,0.15,0.12
2022-12-08 20:13:37.9690,-0.08,-0.29,-0.7,-0.53,0.15,0.07
2022-12-08 20:13:37.9790,-0.72,-0.09,-0.64,-0.5,0.0,0.04
2022-12-08 20:13:37.9890,-0.79,0.00244121253490448,0.01,-0.47,-0.13,0.01
2022-12-08 20:13:37.9980,-0.38,0.0,0.01,-0.47,-0.15,0.01
2022-12-08 20:13:38.0090,0.11,-0.07,-0.03,-0.47,-0.08,0.02
2022-12-08 20:13:38.0180,0.5,-0.06,0.04,-0.47,0.07,0.05
2022-12-08 20:13:38.0290,0.6,0.01,-0.03,-0.48,0.21,0.09
2022-12-08 20:13:38.0380,0.53,0.2,-0.15,-0.5,0.25,0.13
2022-12-08 20:13:38.0480,0.64,0.44,-0.1,-0.51,0.23,0.16
2022-12-08 20:13:38.0580,0.51,0.62,0.11,-0.53,0.21,0.16
2022-12-08 20:13:38.0680,0.19,0.53,0.11,-0.57,0.2,0.14
2022-12-08 20:13:38.0780,0.01,0.28,0.28,-0.62,0.16,0.15
2022-12-08 20:13:38.0880,-0.05,0.19,0.83,-0.69,0.16,0.2
2022-12-08 20:13:38.0980,0.1,0.28,1.08,-0.76,0.22,0.24
2022-12-08 20:13:38.1080,0.33,0.29,1.21,-0.85,0.27,0.31
2022-12-08 20:13:38.1180,0.57,0.51,1.4,-0.95,0.27,0.38
2022-12-08 20:13:38.1280,0.57,0.51,1.4,-1.05,0.22,0.42
2022-12-08 20:13:38.1380,0.83,0.65,1.27,-1.15,0.19,0.47
2022-12-08 20:13:38.1480,1.0,0.64,1.22,-1.28,0.14,0.53
2022-12-08 20:13:38.1580,1.33,0.33,1.37,-1.44,0.1,0.59
2022-12-08 20:13:38.1680,1.55,-0.32,1.56,-1.58,0.06,0.64
2022-12-08 20:13:38.1780,1.18,-0.9,1.72,-1.71,-0.02,0.67
2022-12-08 20:13:38.1880,0.83,-2.34,2.01,-1.85,-0.11,0.73
2022-12-08 20:13:38.1980,0.83,-2.34,2.01,-2.01,-0.16,0.81
2022-12-08 20:13:38.2080,1.27,-2.71,1.74,-2.17,-0.16,0.9
2022-12-08 20:13:38.2180,2.0,-2.6,1.69,-2.35,-0.1,1.03
2022-12-08 20:13:38.2280,2.38,-2.28,2.08,-2.52,0.04,1.16
2022-12-08 20:13:38.2380,2.38,-2.64,2.69,-2.69,0.21,1.31
2022-12-08 20:13:38.2470,1.99,-3.56,3.74,-2.83,0.41,1.44
2022-12-08 20:13:38.2570,1.28,-4.82,4.66,-2.98,0.7,1.51
2022-12-08 20:13:38.2680,0.68,-6.41,5.05,-3.1,1.13,1.59
2022-12-08 20:13:38.2770,0.4,-7.53,5.44,-3.18,1.66,1.64
2022-12-08 20:13:38.2870,0.65,-8.58,5.7,-3.26,2.24,1.63
2022-12-08 20:13:38.2970,1.17,-10.04,6.25,-3.32,2.81,1.55
2022-12-08 20:13:38.3070,1.19,-12.31,6.87,-3.44,3.17,1.46
2022-12-08 20:13:38.3180,0.66,-15.31,7.9,-3.57,3.17,1.36
2022-12-08 20:13:38.3280,0.28,-17.43,9.12,-3.61,2.9,1.19
2022-12-08 20:13:38.3380,0.38,-17.13,10.01,-3.54,2.68,0.91
2022-12-08 20:13:38.3470,1.01,-14.84,10.43,-3.35,2.46,0.55
2022-12-08 20:13:38.3570,2.19,-12.58,11.16,-3.04,2.31,0.53
2022-12-08 20:13:38.3670,1.61,-9.86,11.1,-2.6,1.82,0.66
2022-12-08 20:13:38.3770,-0.77,-7.03,11.59,-2.14,1.25,0.71
2022-12-08 20:13:38.3870,-3.19,-5.23,11.75,-1.62,0.77,0.58
2022-12-08 20:13:38.3970,-4.52,-3.86,10.76,-1.11,0.6,0.19
2022-12-08 20:13:38.4060,-4.54,-2.9,8.31,-0.68,0.57,-0.04
2022-12-08 20:13:38.4160,-4.36,-1.83,5.55,-0.16,-0.22,-0.37
2022-12-08 20:13:38.4270,-2.5,-2.42,8.7,0.35,-1.16,-0.53
2022-12-08 20:13:38.4360,0.48,-2.18,12.46,0.85,-1.86,-0.7
2022-12-08 20:13:38.4460,3.44,-1.38,10.77,1.27,-1.86,-0.73
2022-12-08 20:13:38.4560,5.99,-0.54,7.89,1.67,-1.32,-0.67
2022-12-08 20:13:38.4660,7.3,0.4,7.33,2.13,-0.87,-0.76
2022-12-08 20:13:38.4760,6.62,0.99,7.44,2.6,-0.75,-0.89
2022-12-08 20:13:38.4870,4.14,0.98,7.167958996295929,3.01,-0.78,-0.96
2022-12-08 20:13:38.4960,1.78,0.75,7.16,3.38,-0.89,-1.04
2022-12-08 20:13:38.5060,0.46,0.43,6.6,3.76,-0.99,-1.18
2022-12-08 20:13:38.5160,0.3,0.25,6.07,4.11,-0.93,-1.29
2022-12-08 20:13:38.5260,1.22,0.33,5.29,4.43,-0.73,-1.43
2022-12-08 20:13:38.5360,2.54,0.07,4.59,4.74,-0.44,-1.6
2022-12-08 20:13:38.5460,3.43,-0.3,3.57,5.0,-0.07,-1.71
2022-12-08 20:13:38.5560,3.56,-0.6,2.16,5.23,0.19,-1.75
2022-12-08 20:13:38.5660,3.15,-0.93,1.02,5.42,0.31,-1.73
2022-12-08 20:13:38.5760,2.39,-1.49,0.02,5.58,0.3,-1.72
2022-12-08 20:13:38.5860,1.67,-2.3,-0.95,5.71,0.19,-1.74
2022-12-08 20:13:38.5960,1.26,-2.81,-1.94,5.84,0.06,-1.76
2022-12-08 20:13:38.6050,0.86,-3.05,-2.82,5.96,-0.12,-1.82
2022-12-08 20:13:38.6160,0.25,-3.38,-3.56,6.04,-0.23,-1.89
2022-12-08 20:13:38.6260,-1.7031097322702409,-4.86,-5.84,6.07,-0.27,-1.98
2022-12-08 20:13:38.6360,-1.71,-4.86,-5.84,6.05,-0.37,-2.08
2022-12-08 20:13:38.6450,-2.49,-6.06,-6.9,5.96,-0.5,-2.2
2022-12-08 20:13:38.6550,-2.87,-7.09,-7.97,5.8,-0.58,-2.3
2022-12-08 20:13:38.6650,-2.95,-7.57,-9.48,5.55,-0.55,-2.33
2022-12-08 20:13:38.6750,-2.77,-7.52,-11.54,5.2,-0.61,-2.22
2022-12-08 20:13:38.6850,-2.78,-7.25,-12.96,4.75,-0.84,-2.0
2022-12-08 20:13:38.6950,-3.33,-7.14,-13.49,4.2,-1.17,-1.76
2022-12-08 20:13:38.7050,-4.25,-6.88,-13.41,3.6,-1.36,-1.53
2022-12-08 20:13:38.7150,-5.18,-5.92,-13.52,3.01,-1.31,-1.31
2022-12-08 20:13:38.7250,-5.85,-4.36,-14.17,2.43,-1.12,-1.04
2022-12-08 20:13:38.7350,-6.36,-2.6,-15.02,1.83,-0.95,-0.72
2022-12-08 20:13:38.7450,-6.68,-1.0,-15.62,1.19,-0.83,-0.42
2022-12-08 20:13:38.7550,-6.75,0.36,-15.84,0.53,-0.75,-0.13
2022-12-08 20:13:38.7650,-6.66,1.41,-15.57,-0.07,-0.82,0.21
2022-12-08 20:13:38.7750,-6.63,2.17,-14.49,-0.59,-0.93,0.53
2022-12-08 20:13:38.7850,-6.8,2.5,-13.61,-1.06,-0.94,0.73
2022-12-08 20:13:38.7950,-6.85,2.19,-13.0,-1.48,-0.89,0.89
2022-12-08 20:13:38.8050,-6.6,1.74,-12.28,-1.84,-0.93,1.07
2022-12-08 20:13:38.8150,-6.36,1.48,-11.13,-2.02,-1.3,1.18
2022-12-08 20:13:38.8250,-6.12,0.79,-8.22,-2.02,-1.53,1.3
2022-12-08 20:13:38.8350,-5.51,0.0,-8.46,-1.94,-2.51,1.06
2022-12-08 20:13:38.8450,-1.87,-4.34,11.39,-0.96,-4.37,0.62
2022-12-08 20:13:38.8550,-1.87,-4.34,11.39,-0.25,-3.58,0.92
2022-12-08 20:13:38.8640,0.51,-5.61,32.77,-0.95,0.61,0.34
2022-12-08 20:13:38.8740,10.41,-5.48,-7.7,-1.68,1.84,-0.09
2022-12-08 20:13:38.8840,-0.65,-6.73,-5.1,-1.9,-0.67,1.28
2022-12-08 20:13:38.8940,-0.65,-6.73,-5.1,-2.1,-2.61,2.73
2022-12-08 20:13:38.9040,-3.84,-8.8,-0.59,-2.28,-1.65,2.43
2022-12-08 20:13:38.9140,-0.2,-5.24,-4.54,-2.24,0.47,2.04
2022-12-08 20:13:38.9240,3.22,0.25,-6.98,-2.08,1.16,2.38
2022-12-08 20:13:38.9340,-0.27,4.05,-6.64,-1.77,0.13,2.17
2022-12-08 20:13:38.9440,-4.61,-2.01,-4.2,-1.69,0.11,2.01
2022-12-08 20:13:38.9540,-4.61,-2.01,-4.2,-1.52,0.03,1.54
2022-12-08 20:13:38.9640,-6.01,-2.97,-3.11,-1.36,-0.11,1.04
2022-12-08 20:13:38.9750,-6.01,-2.97,-3.11,-1.19,-0.27,0.72
2022-12-08 20:13:38.9840,-1.84,-0.11,-1.9,-1.06,-0.23,0.59
2022-12-08 20:13:38.9940,-1.84,-0.11,-1.9,-0.96,0.08,0.61
2022-12-08 20:13:39.0040,0.7,0.14,-1.03,-0.89,0.35,0.66
2022-12-08 20:13:39.0140,0.7,0.14,-1.03,-0.82,0.5,0.67
2022-12-08 20:13:39.0230,0.33,-0.44,-1.09,-0.76,0.47,0.59
2022-12-08 20:13:39.0330,-1.13,-0.95,-1.44,-0.67,0.18,0.42
2022-12-08 20:13:39.0430,-2.4,-1.19,-1.12,-0.57,-0.1,0.23
2022-12-08 20:13:39.0530,-1.42,-1.08,-1.1,-0.49,-0.16,0.13
2022-12-08 20:13:39.0630,-1.42,-1.08,-1.1,-0.44,-0.1,0.13
2022-12-08 20:13:39.0730,0.17,-0.45,-1.11,-0.4,0.08,0.19
2022-12-08 20:13:39.0830,1.06,0.03,-0.91,-0.39,0.31,0.22
2022-12-08 20:13:39.0930,0.95,-0.14,-0.87,-0.39,0.41,0.24
2022-12-08 20:13:39.1030,0.26,-0.26,-0.55,-0.39,0.38,0.24
2022-12-08 20:13:39.1130,-0.26,-0.2,-0.07,-0.38,0.33,0.21
2022-12-08 20:13:39.1230,-0.52,-0.13,0.28,-0.38,0.29,0.17
2022-12-08 20:13:39.1330,-0.63,0.05,0.15,-0.37,0.2,0.15
2022-12-08 20:13:39.1430,-0.62,0.25,0.21,-0.36,0.1,0.16
2022-12-08 20:13:39.1530,-0.48,0.44,0.3,-0.35,0.07,0.18
2022-12-08 20:13:39.1630,-0.19,0.52,0.18,-0.35,0.1,0.2
2022-12-08 20:13:39.1730,0.04,0.55,-0.11,-0.34,0.12,0.22
2022-12-08 20:13:39.1830,-0.03,0.7,-0.23,-0.34,0.12,0.23
2022-12-08 20:13:39.1930,-0.37,0.99,-0.3,-0.33,0.06,0.23
2022-12-08 20:13:39.2030,-0.84,1.19,-0.1,-0.33,-0.03,0.22
2022-12-08 20:13:39.2130,-1.18,1.32,0.4,-0.32,-0.1,0.2
2022-12-08 20:13:39.2230,-1.24,1.3,0.65,-0.34,-0.08,0.19
2022-12-08 20:13:39.2330,-0.8,1.12,0.52,-0.37,-0.07,0.2
2022-12-08 20:13:39.2420,0.2,0.73,0.36,-0.42,0.0,0.2
2022-12-08 20:13:39.2520,1.26,-0.02,0.16,-0.5,0.14,0.24
2022-12-08 20:13:39.2620,2.01,-0.84,-0.01,-0.61,0.22,0.36
2022-12-08 20:13:39.2720,2.32,-1.2,0.52,-0.73,0.24,0.49
2022-12-08 20:13:39.2820,1.58,-0.25,1.54,-0.87,0.24,0.57
2022-12-08 20:13:39.2920,1.58,-0.25,1.54,-1.0,0.14,0.65
2022-12-08 20:13:39.3020,0.85,0.35,2.13,-1.14,0.02,0.7
2022-12-08 20:13:39.3120,0.22,0.49,2.52,-1.28,-0.11,0.74
2022-12-08 20:13:39.3220,0.03,0.31,2.83,-1.43,-0.16,0.81
2022-12-08 20:13:39.3320,0.42,0.0,2.87,-1.58,-0.12,0.88
2022-12-08 20:13:39.3420,0.98,-0.55,2.4,-1.73,-0.06,0.93
2022-12-08 20:13:39.3520,1.3,-1.23,1.82,-1.88,-0.06,1.01
2022-12-08 20:13:39.3620,1.53,-1.63,1.6,-2.0,-0.02,1.09
2022-12-08 20:13:39.3720,1.67,-2.01,1.34,-2.11,0.04,1.16
2022-12-08 20:13:39.3820,1.72,-2.59,1.24,-2.24,0.06,1.23
2022-12-08 20:13:39.3920,1.68,-3.31,1.57,-2.35,0.11,1.3
2022-12-08 20:13:39.4020,1.53,-3.87,2.17,-2.45,0.25,1.37
2022-12-08 20:13:39.4120,1.35,-4.34,2.57,-2.54,0.44,1.41
2022-12-08 20:13:39.4220,1.31,-5.06,2.9,-2.64,0.66,1.45
2022-12-08 20:13:39.4320,1.6,-5.97,3.24,-2.76,0.89,1.48
2022-12-08 20:13:39.4420,2.19,-7.09,3.7,-2.88,1.12,1.47
2022-12-08 20:13:39.4520,2.72,-8.55,4.55,-2.99,1.44,1.44
2022-12-08 20:13:39.4610,2.54,-10.7,5.23,-3.07,1.78,1.42
2022-12-08 20:13:39.4720,2.37,-13.01,6.72,-3.15,2.15,1.32
2022-12-08 20:13:39.4830,3.24,-14.83,8.5,-3.26,2.67,1.2
2022-12-08 20:13:39.4920,4.54,-15.52,8.69,-3.38,3.14,1.22
2022-12-08 20:13:39.5020,4.86,-14.79,8.29,-3.44,3.25,1.23
2022-12-08 20:13:39.5110,4.15,-13.58,8.35,-3.37,2.99,1.15
2022-12-08 20:13:39.5210,2.83,-12.09,9.11,-3.19,2.63,1.17
2022-12-08 20:13:39.5310,0.43,-9.54,9.23,-2.83,2.11,1.12
2022-12-08 20:13:39.5410,-1.85,-7.26,8.87,-2.34,1.4,0.88
2022-12-08 20:13:39.5510,-3.18,-6.02,10.39,-1.8,0.84,0.55
2022-12-08 20:13:39.5610,-3.86,-4.73,10.72,-1.28,0.55,0.24
2022-12-08 20:13:39.5710,-3.8,-3.08,9.1,-0.78,0.37,-0.14
2022-12-08 20:13:39.5810,-2.89,-1.77,7.55,-0.35,0.19,-0.32
2022-12-08 20:13:39.5910,-1.37,-0.59,7.36,0.0,0.11,-0.32
2022-12-08 20:13:39.6010,-1.04,0.54,6.1,0.47,-0.6,-0.57
2022-12-08 20:13:39.6110,1.36,0.23,9.92,0.93,-1.02,-0.84
2022-12-08 20:13:39.6210,3.91,0.81,10.54,1.35,-1.08,-1.03
2022-12-08 20:13:39.6310,5.69,1.77,8.44,1.67,-0.89,-1.05
2022-12-08 20:13:39.6410,6.07,2.8,6.76,2.0,-0.97,-1.2
2022-12-08 20:13:39.6510,4.66,2.42,6.14,2.33,-1.24,-1.43
2022-12-08 20:13:39.6610,2.23,1.36,6.93,2.66,-1.7,-1.62
2022-12-08 20:13:39.6700,0.51,1.69,7.03,3.01,-2.13,-1.84
2022-12-08 20:13:39.6800,-0.09,1.72,6.81,3.31,-2.22,-1.98
2022-12-08 20:13:39.6900,-0.35,1.75,5.9,3.61,-2.1,-2.09
2022-12-08 20:13:39.7000,-0.58,1.67,4.9,3.89,-1.92,-2.21
2022-12-08 20:13:39.7100,-0.54,1.35,4.77,4.16,-1.7,-2.32
2022-12-08 20:13:39.7200,-0.17,1.1,4.67,4.44,-1.34,-2.54
2022-12-08 20:13:39.7300,0.37,0.29,3.95,4.68,-0.89,-2.74
2022-12-08 20:13:39.7400,0.66,-0.42,2.6,4.89,-0.6,-2.77
2022-12-08 20:13:39.7500,0.38,-0.37,1.31,5.08,-0.51,-2.66
2022-12-08 20:13:39.7600,-0.43,-0.36,-0.09,5.23,-0.52,-2.52
2022-12-08 20:13:39.7700,-1.57,-0.84,-1.5,5.36,-0.73,-2.44
2022-12-08 20:13:39.7800,-2.54,-1.7,-2.07,5.5,-0.99,-2.42
2022-12-08 20:13:39.7900,-2.86,-2.57,-1.87,5.59,-0.94,-2.48
2022-12-08 20:13:39.8000,-2.45,-3.6,-2.36,5.62,-0.56,-2.56
2022-12-08 20:13:39.8090,-2.01,-4.83,-3.7,5.62,-0.22,-2.56
2022-12-08 20:13:39.8200,-2.51,-5.67,-5.21,5.59,-0.11,-2.46
2022-12-08 20:13:39.8290,-4.66,-6.06,-6.61,5.51,-0.18,-2.37
2022-12-08 20:13:39.8390,-6.63,-6.78,-7.82,5.29,-0.26,-2.38
2022-12-08 20:13:39.8490,-7.29,-7.99,-9.19,4.92,-0.28,-2.36
2022-12-08 20:13:39.8590,-6.64,-8.36,-10.78,4.43,-0.12,-2.26
2022-12-08 20:13:39.8690,-4.94,-7.53,-12.17,3.89,0.21,-2.08
2022-12-08 20:13:39.8790,-3.63,-6.37,-13.04,3.37,0.56,-1.77
2022-12-08 20:13:39.8890,-3.58,-4.99,-13.23,2.89,0.85,-1.43
2022-12-08 20:13:39.8990,-4.95,-3.8,-13.05,2.45,1.12,-1.01
2022-12-08 20:13:39.9090,-7.13,-2.69,-12.75,1.94,1.35,-0.64
2022-12-08 20:13:39.9190,-8.36,-1.72,-13.25,1.35,1.38,-0.41
2022-12-08 20:13:39.9290,-7.73,-0.67,-13.62,0.75,1.17,-0.18
2022-12-08 20:13:39.9390,-6.1,0.78,-13.6,0.16,0.97,0.11
2022-12-08 20:13:39.9490,-4.22,1.94,-13.65,-0.33,0.69,0.39
2022-12-08 20:13:39.9590,-4.22,1.94,-13.65,-0.82,0.69,0.7
2022-12-08 20:13:39.9690,-4.54,1.0,-12.57,-1.25,0.35,0.93
2022-12-08 20:13:39.9790,-4.87,0.38,-11.1,-1.66,0.12,1.2
2022-12-08 20:13:39.9890,-4.94,-0.62,-10.2,-1.94,-0.21,1.19
2022-12-08 20:13:39.9990,-3.2,-2.36,-6.89,-2.02,-1.32,1.01
2022-12-08 20:13:40.0090,-2.25,-6.34,14.9,-0.97,-3.82,0.77
2022-12-08 20:13:40.0190,4.01,-11.19,23.11,-0.95,-2.37,0.34
2022-12-08 20:13:40.0290,4.01,-11.19,23.11,-1.76,0.67,-0.09
2022-12-08 20:13:40.0380,7.35,-2.24,-13.4,-2.14,0.5,0.55
2022-12-08 20:13:40.0480,7.35,-2.24,-13.4,-2.08,-1.99,2.11
2022-12-08 20:13:40.0580,0.26,-1.55,-1.82,-2.1,-2.88,2.68
2022-12-08 20:13:40.0680,-0.74,-3.34,-4.25,-2.08,-1.39,1.83
2022-12-08 20:13:40.0780,-0.74,-3.34,-5.35,-1.87,0.11,1.33
2022-12-08 20:13:40.0880,-1.83,5.77,-2.68,-1.6,0.3,1.68
2022-12-08 20:13:40.0980,-1.83,5.77,-2.68,-1.42,-0.05,2.04
2022-12-08 20:13:40.1080,-5.06,2.59,-2.29,-1.41,-0.01,1.78
2022-12-08 20:13:40.1180,-6.84,-3.09,-4.5,-1.38,-0.26,0.96
2022-12-08 20:13:40.1280,-6.83,-7.13,-4.44,-1.33,-0.59,0.66
2022-12-08 20:13:40.1380,-1.44,-1.22,-2.65,-1.23,-0.73,0.68
2022-12-08 20:13:40.1480,-1.44,-1.22,-2.65,-1.14,-0.32,0.75
2022-12-08 20:13:40.1580,1.0,0.19,-2.5,-1.05,0.29,0.8
2022-12-08 20:13:40.1680,2.43,0.86,-3.31,-0.95,0.61,0.9
2022-12-08 20:13:40.1780,2.07,0.75,-2.46,-0.86,0.64,0.87
2022-12-08 20:13:40.1880,0.31,-0.35,-1.62,-0.77,0.37,0.77
2022-12-08 20:13:40.1980,-1.3,-0.94,-1.47,-0.69,-0.04,0.57
2022-12-08 20:13:40.2080,-2.28,-1.47,-0.63,-0.63,-0.2,0.41
2022-12-08 20:13:40.2180,-2.65,-1.17,-0.3,-0.58,-0.09,0.31
2022-12-08 20:13:40.2280,-1.86,-0.13,-0.27,-0.56,0.16,0.29
2022-12-08 20:13:40.2370,0.13,0.96,0.02,-0.55,0.3,0.35
2022-12-08 20:13:40.2470,0.13,0.96,0.02,-0.54,0.34,0.35
2022-12-08 20:13:40.2580,0.32,0.12,0.27,-0.55,0.38,0.31
2022-12-08 20:13:40.2670,-0.02,-0.79,0.04,-0.55,0.28,0.26
2022-12-08 20:13:40.2770,-0.47,-0.98,-0.046783554162830115,-0.53,0.1,0.24
2022-12-08 20:13:40.2870,-0.53,-0.64,-0.05,-0.51,0.04,0.25
2022-12-08 20:13:40.2970,-0.12,-0.22,-0.16,-0.49,0.12,0.28
2022-12-08 20:13:40.3070,0.57,0.03,-0.33,-0.5,0.27,0.32
2022-12-08 20:13:40.3170,1.06,0.15,-0.19,-0.51,0.42,0.35
2022-12-08 20:13:40.3270,0.95,0.1,-0.16,-0.52,0.51,0.36
2022-12-08 20:13:40.3370,0.27,-0.01,-0.19,-0.52,0.48,0.35
2022-12-08 20:13:40.3470,-0.44,0.07,0.02,-0.51,0.41,0.31
2022-12-08 20:13:40.3570,-0.9,0.19,0.1,-0.5,0.33,0.25
2022-12-08 20:13:40.3670,-1.05,0.27,0.05,-0.5,0.23,0.23
2022-12-08 20:13:40.3770,-0.22,0.22,0.13,-0.51,0.19,0.23
2022-12-08 20:13:40.3870,-0.22,0.22,0.13,-0.54,0.23,0.24
2022-12-08 20:13:40.3970,0.17,0.04,0.12,-0.58,0.25,0.28
2022-12-08 20:13:40.4070,0.4,0.1,0.19,-0.62,0.26,0.3
2022-12-08 20:13:40.4170,0.38,0.23,0.2,-0.65,0.26,0.31
2022-12-08 20:13:40.4270,0.23,0.39,0.15,-0.67,0.23,0.33
2022-12-08 20:13:40.4360,0.13,0.51,0.3,-0.69,0.22,0.36
2022-12-08 20:13:40.4470,0.15,0.46,0.41,-0.7,0.25,0.38
2022-12-08 20:13:40.4560,0.31,0.27,0.37,-0.72,0.3,0.4
2022-12-08 20:13:40.4670,0.4,0.01,0.24,-0.76,0.37,0.43
2022-12-08 20:13:40.4760,0.4,-0.18,0.24,-0.82,0.4,0.48
2022-12-08 20:13:40.4860,0.71,-0.1,0.35,-0.9,0.42,0.53
2022-12-08 20:13:40.4960,1.08,0.07,0.57,-0.99,0.45,0.59
2022-12-08 20:13:40.5060,1.15,0.14,0.93,-1.1,0.45,0.65
2022-12-08 20:13:40.5160,1.05,0.06,1.43,-1.24,0.37,0.72
2022-12-08 20:13:40.5260,0.93,-0.22,1.81,-1.4,0.26,0.78
2022-12-08 20:13:40.5360,0.92,-0.48,2.39,-1.55,0.18,0.86
2022-12-08 20:13:40.5460,1.03,-0.69,2.62,-1.7,0.17,0.91
2022-12-08 20:13:40.5560,1.0,-1.31,2.52,-1.86,0.15,0.99
2022-12-08 20:13:40.5660,1.3,-1.97,2.4,-2.01,0.15,1.08
2022-12-08 20:13:40.5760,1.91,-2.3,2.08,-2.15,0.2,1.17
2022-12-08 20:13:40.5860,2.36,-2.61,1.87,-2.29,0.28,1.26
2022-12-08 20:13:40.5960,2.26,-3.11,2.14,-2.43,0.39,1.35
2022-12-08 20:13:40.6060,1.91,-3.92,2.85,-2.58,0.51,1.46
2022-12-08 20:13:40.6160,1.72,-4.8,3.61,-2.74,0.69,1.54
2022-12-08 20:13:40.6260,1.85,-5.65,4.32,-2.86,0.98,1.6
2022-12-08 20:13:40.6360,2.31,-6.74,4.8,-3.02,1.32,1.66
2022-12-08 20:13:40.6460,2.99,-8.31,5.36,-3.16,1.73,1.63
2022-12-08 20:13:40.6560,3.36,-10.77,6.14,-3.32,2.24,1.55
2022-12-08 20:13:40.6670,3.31,-13.91,6.74,-3.48,2.67,1.47
2022-12-08 20:13:40.6770,3.72,-16.11,7.87,-3.58,2.98,1.38
2022-12-08 20:13:40.6860,4.64,-16.02,8.16,-3.63,3.17,1.35
2022-12-08 20:13:40.6950,3.19,-12.15,6.95,-3.64,3.1,1.3
2022-12-08 20:13:40.7050,3.19,-12.15,6.95,-3.49,2.78,1.02
2022-12-08 20:13:40.7150,2.11,-11.73,8.77,-3.22,2.24,0.96
2022-12-08 20:13:40.7250,0.68,-10.15,8.99,-2.88,1.36,1.23
2022-12-08 20:13:40.7350,-2.4,-6.59,9.29,-2.41,0.23,1.16
2022-12-08 20:13:40.7450,-4.37,-5.44,10.56,-1.95,-0.26,0.75
2022-12-08 20:13:40.7550,-5.2,-5.14,9.98,-1.51,-0.42,0.21
2022-12-08 20:13:40.7650,-4.81,-4.0,6.75,-1.05,-0.7,-0.33
2022-12-08 20:13:40.7750,-1.51,-0.65,6.84,-0.69,-0.89,-0.43
2022-12-08 20:13:40.7850,-1.51,-0.65,6.84,-0.31,-1.13,-0.59
2022-12-08 20:13:40.7950,-0.32,0.47,6.34,0.18,-1.67,-0.95
2022-12-08 20:13:40.8050,3.1,0.56,9.52,0.67,-1.86,-1.16
2022-12-08 20:13:40.8150,5.88,2.47,9.24,1.06,-1.7,-1.26
2022-12-08 20:13:40.8250,7.71,3.57,6.78,1.39,-1.39,-1.35
2022-12-08 20:13:40.8350,7.69,3.23,5.42,1.7,-1.21,-1.64
2022-12-08 20:13:40.8450,6.02,1.78,5.68,2.03,-1.31,-1.82
2022-12-08 20:13:40.8540,3.78,1.65,6.27,2.35,-1.53,-1.93
2022-12-08 20:13:40.8650,2.27,1.81,6.43,2.65,-1.63,-2.08
2022-12-08 20:13:40.8740,1.24,1.61,5.89,2.95,-1.63,-2.24
2022-12-08 20:13:40.8850,0.45,1.55,5.51,3.26,-1.57,-2.39
2022-12-08 20:13:40.8940,0.41,1.29,5.2,3.55,-1.42,-2.55
2022-12-08 20:13:40.9040,0.41,1.29,5.2,3.82,-1.11,-2.74
2022-12-08 20:13:40.9140,1.0,0.71,4.83,4.08,-0.71,-2.95
2022-12-08 20:13:40.9240,1.48,0.11,2.89,4.33,-0.3,-3.07
2022-12-08 20:13:40.9340,1.48,0.11,2.89,4.54,0.03,-3.06
2022-12-08 20:13:40.9440,0.89,-0.06,1.59,4.74,0.19,-2.96
2022-12-08 20:13:40.9540,-0.17,-0.44,0.62,4.94,0.21,-2.87
2022-12-08 20:13:40.9640,-1.27,-1.03,0.1,5.14,0.2,-2.79
2022-12-08 20:13:40.9740,-1.99,-2.2617971545457842,-0.5,5.35,0.15,-2.7
2022-12-08 20:13:40.9840,-2.07,-2.27,-0.5,5.55,0.15,-2.69
2022-12-08 20:13:40.9940,-2.16,-3.3,-1.25,5.72,0.19,-2.73
2022-12-08 20:13:41.0040,-2.98,-4.6,-2.54,5.81,0.28,-2.76
2022-12-08 20:13:41.0140,-4.31,-5.72,-4.06,5.81,0.43,-2.75
2022-12-08 20:13:41.0240,-5.51,-6.69,-5.43,5.74,0.48,-2.76
2022-12-08 20:13:41.0340,-5.74,-7.72,-6.55,5.59,0.49,-2.7
2022-12-08 20:13:41.0440,-5.39,-8.12,-7.83,5.35,0.49,-2.58
2022-12-08 20:13:41.0540,-4.89,-8.24,-9.78,5.03,0.5,-2.44
2022-12-08 20:13:41.0640,-4.89,-8.24,-9.78,4.64,0.58,-2.29
2022-12-08 20:13:41.0730,-4.99,-8.12,-11.175388004779816,4.2,0.77,-2.08
2022-12-08 20:13:41.0830,-5.28,-7.49,-11.18,3.74,0.98,-1.77
2022-12-08 20:13:41.0930,-5.62,-6.42,-11.57,3.25,1.21,-1.39
2022-12-08 20:13:41.1030,-6.31,-4.84,-12.29,2.66,1.54,-0.95
2022-12-08 20:13:41.1130,-7.36,-2.95,-13.8,1.94,1.67,-0.6
2022-12-08 20:13:41.1230,-7.9,-1.26,-14.73,1.11,1.61,-0.28
2022-12-08 20:13:41.1330,-7.53,0.53,-15.22,0.32,1.23,0.15
2022-12-08 20:13:41.1430,-6.55,2.41,-14.95,-0.32,0.79,0.54
2022-12-08 20:13:41.1530,-5.79,3.15,-13.87,-0.85,0.61,0.8
2022-12-08 20:13:41.1630,-5.68,2.7,-13.46,-1.29,0.56,1.0
2022-12-08 20:13:41.1730,-5.4264868515729905,0.71,-11.54,-1.65,0.52,1.2
2022-12-08 20:13:41.1830,-5.43,0.71,-11.54,-1.92,0.32,1.34
2022-12-08 20:13:41.1930,-3.76,-0.65,-8.15,-2.15,-0.26,1.44
2022-12-08 20:13:41.2030,-3.76,-0.65,-8.034225164651872,-2.33,-1.27,1.55
2022-12-08 20:13:41.2130,-3.47,-0.54,-8.04,-2.22,-2.43,1.27
2022-12-08 20:13:41.2230,-2.23,-2.35,-2.57,-1.65,-3.5,0.68
2022-12-08 20:13:41.2330,1.15,-4.41,2.42,-0.46,-5.6,0.24
2022-12-08 20:13:41.2430,6.53,-6.39,20.31,-0.54,-3.22,0.61
2022-12-08 20:13:41.2530,14.56,-6.03,19.71,-1.36,1.34,0.51
2022-12-08 20:13:41.2620,15.49,-3.62,-17.7,-1.79,1.65,1.07
2022-12-08 20:13:41.2720,-4.5,-2.84,-2.42,-1.78,-0.6,2.62
2022-12-08 20:13:41.2820,-4.5,-2.84,-2.42,-1.95,-2.05,3.71
2022-12-08 20:13:41.2920,-12.01,-4.93,-1.07,-2.05,-1.65,2.84
2022-12-08 20:13:41.3020,-10.04,-5.97,-6.38,-1.91,-0.28,1.15
2022-12-08 20:13:41.3120,-3.18,-5.75,-7.1,-1.72,0.72,0.65
2022-12-08 20:13:41.3220,0.72,-0.57,-4.81,-1.43,0.74,1.27
2022-12-08 20:13:41.3320,1.54,3.59,-1.86,-1.25,0.79,1.71
2022-12-08 20:13:41.3420,2.49,2.23,-3.14,-1.19,1.25,1.48
2022-12-08 20:13:41.3520,0.89,-1.87,-6.37,-1.09,1.03,1.34
2022-12-08 20:13:41.3620,-2.19,-3.07,-3.8,-0.99,0.45,1.28
2022-12-08 20:13:41.3720,-4.68,-2.16,-1.99,-0.86,0.18,0.83
2022-12-08 20:13:41.3820,-4.54,-2.25,-1.21,-0.74,0.23,0.47
2022-12-08 20:13:41.3920,-0.01,-0.42,-0.53,-0.65,0.32,0.43
2022-12-08 20:13:41.4020,-0.01,-0.42,-0.53,-0.61,0.43,0.55
2022-12-08 20:13:41.4120,0.8,-0.12,-1.0,-0.58,0.65,0.49
2022-12-08 20:13:41.4220,-0.36,-0.51,-1.12,-0.54,0.79,0.39
2022-12-08 20:13:41.4320,-1.65,-0.29,-0.89,-0.5,0.72,0.35
2022-12-08 20:13:41.4420,-1.57,-0.29,-0.55,-0.47,0.55,0.26
2022-12-08 20:13:41.4520,-1.14,-0.8,-0.8,-0.43,0.4,0.16
2022-12-08 20:13:41.4620,-1.08,-0.85,-0.5,-0.4,0.36,0.1
2022-12-08 20:13:41.4710,-0.98,-0.74,0.12,-0.41,0.42,0.08
2022-12-08 20:13:41.4810,-0.27,-0.68,0.09,-0.43,0.48,0.09
2022-12-08 20:13:41.4910,0.53,-0.46,-0.25,-0.44,0.53,0.12
2022-12-08 20:13:41.5010,0.58,0.24,0.1,-0.46,0.59,0.17
2022-12-08 20:13:41.5110,0.58,0.24,0.1,-0.47,0.61,0.2
2022-12-08 20:13:41.5210,0.37,0.35,0.28,-0.47,0.59,0.2
2022-12-08 20:13:41.5310,0.09,0.21,0.33,-0.48,0.55,0.19
2022-12-08 20:13:41.5410,-0.57,0.18,-0.15,-0.49,0.49,0.16
2022-12-08 20:13:41.5510,-0.57,0.18,-0.15,-0.49,0.4,0.14
2022-12-08 20:13:41.5610,-0.54,0.47,-0.21,-0.5,0.35,0.15
2022-12-08 20:13:41.5710,-0.33,0.88,-0.21,-0.51,0.34,0.15
2022-12-08 20:13:41.5810,-0.21,1.11,-0.21,-0.52,0.36,0.17
2022-12-08 20:13:41.5910,-0.29,1.19,-0.03,-0.53,0.37,0.19
2022-12-08 20:13:41.6010,-0.38,1.21,0.3,-0.53,0.41,0.23
2022-12-08 20:13:41.6110,-0.38,1.21,0.71,-0.55,0.46,0.27
2022-12-08 20:13:41.6210,-0.14,1.08,0.82,-0.59,0.47,0.29
2022-12-08 20:13:41.6310,0.13,0.78,0.69,-0.63,0.4,0.31
2022-12-08 20:13:41.6400,0.15,0.39,0.66,-0.68,0.31,0.33
2022-12-08 20:13:41.6510,0.24,-0.02,0.61,-0.75,0.28,0.38
2022-12-08 20:13:41.6610,0.44,-0.13,0.78,-0.84,0.27,0.45
2022-12-08 20:13:41.6710,1.01,-0.09,1.12,-0.95,0.28,0.54
2022-12-08 20:13:41.6800,1.49,-0.01,1.44,-1.07,0.28,0.62
2022-12-08 20:13:41.6900,1.46,-0.03,1.67,-1.19,0.23,0.68
2022-12-08 20:13:41.7000,1.13,-0.21,1.73,-1.3,0.16,0.71
2022-12-08 20:13:41.7100,0.85,-0.46,1.62,-1.4,0.13,0.76
2022-12-08 20:13:41.7200,0.96,-0.66,1.55,-1.51,0.17,0.83
2022-12-08 20:13:41.7300,1.38,-0.99,1.6,-1.62,0.23,0.91
2022-12-08 20:13:41.7400,1.62,-1.42,1.69,-1.74,0.27,0.99
2022-12-08 20:13:41.7500,1.52,-1.8,1.74,-1.85,0.25,1.06
2022-12-08 20:13:41.7600,1.31,-1.97,1.98,-1.96,0.23,1.12
2022-12-08 20:13:41.7700,1.24,-2.17,2.32,-2.07,0.32,1.17
2022-12-08 20:13:41.7800,1.28,-2.58,2.45,-2.18,0.46,1.24
2022-12-08 20:13:41.7900,1.41,-3.0,2.85,-2.28,0.6,1.34
2022-12-08 20:13:41.8000,1.52,-3.44,3.31,-2.38,0.81,1.39
2022-12-08 20:13:41.8100,1.68,-4.19,3.06,-2.5,0.94,1.41
2022-12-08 20:13:41.8200,2.0,-4.94,2.89,-2.61,1.01,1.41
2022-12-08 20:13:41.8300,2.59,-5.54,3.12,-2.71,1.12,1.38
2022-12-08 20:13:41.8400,3.55,-6.16,2.98,-2.79,1.17,1.36
2022-12-08 20:13:41.8500,4.42,-7.02,3.87,-2.84,1.22,1.29
2022-12-08 20:13:41.8600,4.81,-8.96,5.29,-2.95,1.37,1.19
2022-12-08 20:13:41.8700,5.34,-13.33,6.38,-3.09,1.65,1.06
2022-12-08 20:13:41.8810,5.34,-13.33,6.38,-3.24,2.21,0.88
2022-12-08 20:13:41.8910,6.01,-13.93,5.47,-3.35,2.68,0.92
2022-12-08 20:13:41.8990,5.47,-12.97,4.6,-3.36,2.49,1.2
2022-12-08 20:13:41.9090,2.58,-11.39,7.95,-3.28,2.09,1.26
2022-12-08 20:13:41.9190,-0.26,-10.66,8.82,-3.13,1.66,1.08
2022-12-08 20:13:41.9290,-1.83,-10.16,7.25,-2.83,1.12,0.59
2022-12-08 20:13:41.9390,-2.38,-10.28,8.26,-2.42,0.54,0.09
2022-12-08 20:13:41.9490,-1.83,-9.29,10.82,-1.96,-0.23,-0.25
2022-12-08 20:13:41.9590,-0.23,-6.62,12.7,-1.51,-0.4,-0.45
2022-12-08 20:13:41.9690,1.18,-3.89,11.47,-1.14,0.06,-0.51
2022-12-08 20:13:41.9790,1.37,-1.22,6.75,-0.74,0.65,-0.67
2022-12-08 20:13:41.9890,0.66,-0.4,4.06,-0.5,1.18,-0.29
2022-12-08 20:13:41.9990,-3.27,0.47,4.55,-0.17,0.43,-0.12
2022-12-08 20:13:42.0090,-5.51,-0.11,7.06,0.33,-0.73,-0.57
2022-12-08 20:13:42.0190,-2.39,-1.29,12.14,0.8,-0.99,-1.1
2022-12-08 20:13:42.0290,2.8,-0.44,10.83,1.17,-0.63,-1.4
2022-12-08 20:13:42.0390,5.57,1.06,8.19,1.47,-0.16,-1.42
2022-12-08 20:13:42.0490,5.86,2.58,6.39,1.79,0.08,-1.56
2022-12-08 20:13:42.0590,4.69,2.67,6.29,2.13,0.05,-1.77
2022-12-08 20:13:42.0680,2.26,2.3,6.32,2.47,-0.37,-1.84
2022-12-08 20:13:42.0790,0.67,2.45,6.79,2.79,-0.84,-1.91
2022-12-08 20:13:42.0880,0.41,1.78,7.03,3.09,-1.12,-2.06
2022-12-08 20:13:42.0980,0.61,1.06,6.51,3.38,-1.23,-2.22
2022-12-08 20:13:42.1080,0.68,0.96,5.93,3.66,-1.25,-2.31
2022-12-08 20:13:42.1180,0.35,1.32,5.37,3.95,-1.22,-2.36
2022-12-08 20:13:42.1280,-0.41,1.45,4.99,4.24,-1.11,-2.46
2022-12-08 20:13:42.1380,-2.1587332543730735,-0.19,3.87,4.52,-0.92,-2.6
2022-12-08 20:13:42.1480,-2.16,-0.19,3.87,4.78,-0.8,-2.68
2022-12-08 20:13:42.1580,-2.38,-0.93,3.36,5.03,-0.72,-2.68
2022-12-08 20:13:42.1680,-2.91,-1.53,1.05,5.27,-0.61,-2.65
2022-12-08 20:13:42.1780,-2.91,-1.53,1.05,5.48,-0.5,-2.58
2022-12-08 20:13:42.1880,-3.45,-2.01,-0.26,5.67,-0.5,-2.54
2022-12-08 20:13:42.1980,-3.55,-2.9,-1.35,5.83,-0.51,-2.56
2022-12-08 20:13:42.2080,-3.05,-3.99,-2.38,5.93,-0.39,-2.58
2022-12-08 20:13:42.2180,-2.43,-5.0,-3.45,5.96,-0.07,-2.53
2022-12-08 20:13:42.2280,-2.43,-5.78,-5.0,5.92,0.32,-2.43
2022-12-08 20:13:42.2380,-3.29,-6.7,-6.55,5.81,0.63,-2.36
2022-12-08 20:13:42.2480,-4.58,-7.91,-7.88,5.62,0.79,-2.38
2022-12-08 20:13:42.2560,-5.43,-8.91,-9.24,5.32,0.87,-2.39
2022-12-08 20:13:42.2680,-5.35,-8.56,-12.67,4.91,0.85,-2.28
2022-12-08 20:13:42.2770,-5.35,-8.56,-12.67,4.41,0.72,-2.03
2022-12-08 20:13:42.2870,-5.21,-7.44,-13.31,3.83,0.56,-1.65
2022-12-08 20:13:42.2970,-5.65,-6.21,-13.37,3.22,0.35,-1.18
2022-12-08 20:13:42.3070,-6.98,-4.58,-13.31,2.6,0.15,-0.78
2022-12-08 20:13:42.3170,-8.08,-2.99,-13.91,1.95,-0.03,-0.6
2022-12-08 20:13:42.3270,-7.71,-1.54,-14.84,1.19,-0.16,-0.37
2022-12-08 20:13:42.3370,-6.3,0.72,-15.3,0.43,-0.28,0.05
2022-12-08 20:13:42.3470,-5.21,2.65,-15.44,-0.23,-0.5,0.59
2022-12-08 20:13:42.3570,-5.63,3.31,-14.25,-0.76,-0.67,1.01
2022-12-08 20:13:42.3670,-7.81,1.53,-11.21,-1.16,-0.93,1.23
2022-12-08 20:13:42.3770,-7.81,1.53,-11.21,-1.48,-1.22,1.44
2022-12-08 20:13:42.3870,-7.54,0.93,-9.74,-1.84,-1.53,1.71
2022-12-08 20:13:42.3970,-7.73,0.58,-10.76,-2.17,-1.97,1.8
2022-12-08 20:13:42.4070,-8.15,-0.89,-10.59,-2.25,-3.06,1.69
2022-12-08 20:13:42.4170,-7.25,-2.65,-7.02,-0.77,-7.15,0.65
2022-12-08 20:13:42.4270,-4.53,-10.8,24.7,-1.13,-3.53,-0.33
2022-12-08 20:13:42.4380,7.68,-15.91,17.7,-1.98,1.74,-1.05
2022-12-08 20:13:42.4470,16.63,-9.51,-26.33,-2.27,0.94,-0.56
2022-12-08 20:13:42.4570,9.85,-2.4,-13.31,-1.92,-2.27,2.3
2022-12-08 20:13:42.4670,3.19,2.27,3.58,-2.0,-3.34,4.2
2022-12-08 20:13:42.4770,-2.7,0.42,3.28,-2.23,-1.33,3.72
2022-12-08 20:13:42.4870,-3.02,-2.3,-7.36,-2.24,0.74,2.53
2022-12-08 20:13:42.4960,-6.86,-0.56,-2.37,-1.95,0.35,1.87
2022-12-08 20:13:42.5060,-6.86,-0.56,-2.37,-1.61,-0.18,1.67
2022-12-08 20:13:42.5160,-7.45,0.89,-2.9,-1.42,-0.25,1.38
2022-12-08 20:13:42.5260,-5.02,-0.53,-6.03,-1.26,-0.47,1.14
2022-12-08 20:13:42.5360,-0.91,-2.48,-4.9,-1.16,-0.61,1.21
2022-12-08 20:13:42.5460,0.08,-2.31,-2.72,-1.12,-0.27,1.13
2022-12-08 20:13:42.5560,-0.48,-1.77,-2.39,-1.05,0.1,0.91
2022-12-08 20:13:42.5660,-1.35,-1.14,-2.29,-0.91,-0.07,0.79
2022-12-08 20:13:42.5760,-1.68,0.14,-0.91,-0.77,-0.27,0.65
2022-12-08 20:13:42.5860,-1.38,-0.21,-0.17,-0.72,-0.2,0.52
2022-12-08 20:13:42.5960,-0.98,-1.67,-1.12,-0.69,-0.25,0.4
2022-12-08 20:13:42.6060,-1.06,-1.98,-1.6,-0.61,-0.33,0.36
2022-12-08 20:13:42.6150,-1.4,-0.66,-0.76,-0.56,-0.15,0.43
2022-12-08 20:13:42.6260,-0.73,0.68,-0.43,-0.52,0.08,0.43
2022-12-08 20:13:42.6360,0.96,0.22,-0.67,-0.5,0.2,0.4
2022-12-08 20:13:42.6450,1.3,-0.64,-0.96,-0.46,0.19,0.37
2022-12-08 20:13:42.6560,0.18,-0.72,-0.98,-0.41,0.14,0.36
2022-12-08 20:13:42.6650,-0.5,-0.36,-0.69,-0.39,0.16,0.36
2022-12-08 20:13:42.6750,-0.23,-0.19,-0.65,-0.37,0.17,0.33
2022-12-08 20:13:42.6850,0.29,-0.28,-0.54,-0.37,0.23,0.31
2022-12-08 20:13:42.6950,0.28,-0.36,-0.2,-0.37,0.31,0.3
2022-12-08 20:13:42.7050,0.0,-0.27,-0.05,-0.36,0.37,0.3
2022-12-08 20:13:42.7150,-0.16,-0.12,0.05,-0.36,0.4,0.3
2022-12-08 20:13:42.7250,-0.19,0.06,0.02,-0.37,0.36,0.31
2022-12-08 20:13:42.7350,-0.18,0.32,0.13,-0.37,0.33,0.31
2022-12-08 20:13:42.7450,-0.32,0.43,0.16,-0.39,0.25,0.3
2022-12-08 20:13:42.7550,-0.36,0.45,0.16,-0.41,0.2,0.3
2022-12-08 20:13:42.7650,-0.13,0.43,0.4070153991132975,-0.44,0.2,0.32
2022-12-08 20:13:42.7750,0.16,0.33,0.4,-0.49,0.22,0.34
2022-12-08 20:13:42.7850,0.4,0.23,0.44,-0.54,0.23,0.37
2022-12-08 20:13:42.7950,0.44,0.22,0.51,-0.59,0.25,0.41
2022-12-08 20:13:42.8050,0.35,0.35,0.6,-0.65,0.26,0.46
2022-12-08 20:13:42.8150,0.36,0.6,0.61,-0.7,0.22,0.5
2022-12-08 20:13:42.8250,0.52,0.75,0.75,-0.75,0.21,0.57
2022-12-08 20:13:42.8350,0.49,0.89,0.93,-0.8,0.17,0.6
2022-12-08 20:13:42.8450,0.43,0.64,1.04,-0.85,0.14,0.63
2022-12-08 20:13:42.8550,0.33,0.22,0.97,-0.92,0.12,0.67
2022-12-08 20:13:42.8650,0.26,-0.26,1.01,-1.01,0.13,0.73
2022-12-08 20:13:42.8740,0.65,-0.51,1.17,-1.11,0.22,0.79
2022-12-08 20:13:42.8840,1.19,-0.61,1.2,-1.23,0.32,0.86
2022-12-08 20:13:42.8940,1.62,-0.6,1.26,-1.37,0.36,0.95
2022-12-08 20:13:42.9040,1.87,-0.75,1.54,-1.53,0.33,1.04
2022-12-08 20:13:42.9140,1.91,-1.1,1.81,-1.68,0.24,1.11
2022-12-08 20:13:42.9240,1.63,-1.53,2.11,-1.8,0.17,1.18
2022-12-08 20:13:42.9340,1.37,-1.83,2.33,-1.92,0.15,1.24
2022-12-08 20:13:42.9440,1.38,-2.27,2.25,-2.05,0.19,1.32
2022-12-08 20:13:42.9540,1.73,-2.84,2.18,-2.19,0.27,1.42
2022-12-08 20:13:42.9640,2.2,-3.98,3.17,-2.32,0.46,1.52
2022-12-08 20:13:42.9740,2.2,-3.98,3.17,-2.45,0.71,1.61
2022-12-08 20:13:42.9840,2.26,-4.61,3.75,-2.57,1.01,1.68
2022-12-08 20:13:42.9940,2.41,-5.41,4.01,-2.73,1.18,1.69
2022-12-08 20:13:43.0040,2.89,-9.0,5.42,-2.85,1.26,1.63
2022-12-08 20:13:43.0140,2.89,-9.0,5.42,-2.99,1.46,1.56
2022-12-08 20:13:43.0240,2.68,-12.13,5.99,-3.12,1.75,1.53
2022-12-08 20:13:43.0340,3.33,-14.1,7.01,-3.2,2.16,1.46
2022-12-08 20:13:43.0440,6.3,-14.47,8.25,-3.29,2.74,1.22
2022-12-08 20:13:43.0540,7.88,-13.75,7.92,-3.39,3.32,1.08
2022-12-08 20:13:43.0640,7.88,-13.75,7.92,-3.45,3.51,1.31
2022-12-08 20:13:43.0730,7.86,-11.81,7.91,-3.39,3.23,1.48
2022-12-08 20:13:43.0830,5.16,-10.53,8.22,-3.17,2.73,1.37
2022-12-08 20:13:43.0930,1.9,-10.12,9.21,-2.82,2.06,1.08
2022-12-08 20:13:43.1030,-0.29,-8.97,10.11,-2.45,1.82,0.82
2022-12-08 20:13:43.1130,-1.13,-6.15,6.7,-2.04,1.58,0.68
2022-12-08 20:13:43.1230,-3.02,-4.16,5.16,-1.57,0.85,0.58
2022-12-08 20:13:43.1330,-5.22,-4.16,8.19,-1.13,0.27,0.42
2022-12-08 20:13:43.1430,-5.54,-4.07,6.98,-0.69,-0.11,0.1
2022-12-08 20:13:43.1530,-4.28,-3.96,7.86,-0.41,0.15,0.04
2022-12-08 20:13:43.1630,-3.26,-2.09,8.07904056429863,0.05,-0.48,-0.22
2022-12-08 20:13:43.1730,0.45,-1.06,8.07,0.57,-1.03,-0.55
2022-12-08 20:13:43.1830,4.76,-0.25,11.3,0.99,-0.79,-0.69
2022-12-08 20:13:43.1930,7.15,1.23,9.22,1.33,-0.15,-0.72
2022-12-08 20:13:43.2030,7.51,2.32,6.79,1.66,0.23,-0.91
2022-12-08 20:13:43.2130,6.11,2.04,6.12,2.01,0.11,-1.11
2022-12-08 20:13:43.2230,3.61,1.56,5.91,2.35,-0.27,-1.23
2022-12-08 20:13:43.2330,1.83,1.54,6.12,2.67,-0.69,-1.29
2022-12-08 20:13:43.2430,0.98,1.74,6.11,2.98,-0.99,-1.36
2022-12-08 20:13:43.2530,0.92,1.96,5.91,3.29,-1.06,-1.49
2022-12-08 20:13:43.2630,0.88,1.85,5.7,3.59,-1.01,-1.63
2022-12-08 20:13:43.2730,0.87,1.72,5.34,3.86,-0.94,-1.76
2022-12-08 20:13:43.2830,1.01,1.53,5.32,4.13,-0.81,-1.92
2022-12-08 20:13:43.2920,1.13,1.16,5.04,4.39,-0.57,-2.16
2022-12-08 20:13:43.3030,1.22,0.47,4.26,4.63,-0.24,-2.37
2022-12-08 20:13:43.3120,1.2,-0.01,3.27,4.84,0.16,-2.52
2022-12-08 20:13:43.3220,0.86,-0.29,2.08,5.03,0.51,-2.58
2022-12-08 20:13:43.3320,0.38,-0.49,1.04,5.22,0.69,-2.57
2022-12-08 20:13:43.3420,0.11,-0.78,0.25,5.4,0.7,-2.48
2022-12-08 20:13:43.3520,-0.22,-1.07,-0.52,5.59,0.59,-2.4
2022-12-08 20:13:43.3620,-0.82,-1.6,-1.38,5.76,0.38,-2.34
2022-12-08 20:13:43.3720,-1.28,-2.45,-2.07,5.91,0.17,-2.3
2022-12-08 20:13:43.3820,-1.57,-3.55,-2.8,6.01,0.02,-2.35
2022-12-08 20:13:43.3920,-1.63,-5.18,-3.55,6.04,0.03,-2.41
2022-12-08 20:13:43.4020,-2.0,-6.86,-4.85,6.02,0.07,-2.39
2022-12-08 20:13:43.4120,-3.58,-8.18,-6.09,5.95,-0.07,-2.31
2022-12-08 20:13:43.4220,-5.65,-9.22,-6.67,5.81,-0.23,-2.26
2022-12-08 20:13:43.4320,-6.77,-9.76,-9.725009551048279,5.58,-0.38,-2.2
2022-12-08 20:13:43.4420,-6.72,-9.36,-9.73,5.22,-0.49,-2.11
2022-12-08 20:13:43.4520,-6.21,-8.62,-11.66,4.7,-0.55,-2.0
2022-12-08 20:13:43.4620,-5.61,-7.94,-13.21,4.08,-0.51,-1.86
2022-12-08 20:13:43.4720,-5.0,-7.05,-14.0,3.46,-0.4,-1.58
2022-12-08 20:13:43.4820,-4.98,-5.71,-14.07,2.83,-0.16,-1.2
2022-12-08 20:13:43.4920,-6.17,-4.55,-14.73,1.92,0.38,-0.78
2022-12-08 20:13:43.5010,-8.03,-2.92,-16.15,0.84,0.96,-0.16
2022-12-08 20:13:43.5110,-9.18,0.44,-17.68,-0.13,0.77,0.63
2022-12-08 20:13:43.5210,-9.43,4.15,-16.76,-0.83,0.09,1.09
2022-12-08 20:13:43.5310,-9.3,4.92,-15.01,-1.34,-0.2,1.18
2022-12-08 20:13:43.5410,-9.01,3.03,-14.96,-1.76,-0.09,1.36
2022-12-08 20:13:43.5510,-8.09,1.21,-14.52,-2.11,-0.15,1.67
2022-12-08 20:13:43.5610,-5.78,-0.05,-12.5,-2.35,-0.63,1.89
2022-12-08 20:13:43.5710,-3.69,-1.62,-9.27,-2.46,-1.43,2.09
2022-12-08 20:13:43.5810,-2.698870384991169,-3.43,-4.11,-2.19,-3.11,1.81
2022-12-08 20:13:43.5910,-2.7,-3.43,-4.11,-1.34,-5.09,0.91
2022-12-08 20:13:43.6010,-0.07,-4.18,4.82,0.29,-8.28,-0.54
2022-12-08 20:13:43.6110,5.08,-8.81,34.87,-0.3,-2.39,-0.46
2022-12-08 20:13:43.6210,16.44,-5.73,0.69,-1.38,3.54,-0.29
2022-12-08 20:13:43.6310,15.77,-4.77,-34.29,-1.91,3.04,1.22
2022-12-08 20:13:43.6410,5.75,-11.06,-9.55,-2.48,-0.07,3.14
2022-12-08 20:13:43.6510,-4.9,-11.69,-1.92,-2.46,-2.04,3.99
2022-12-08 20:13:43.6610,-9.37,-7.44,-3.29,-2.41,-1.96,3.18
2022-12-08 20:13:43.6710,-3.95,-3.85,-4.14,-2.09,-0.05,2.12
2022-12-08 20:13:43.6810,0.84,0.25,-5.03,-1.81,1.31,1.75
2022-12-08 20:13:43.6910,-0.93,5.15,-3.93,-1.45,1.01,1.62
2022-12-08 20:13:43.7000,-4.82,4.47,-3.07,-1.13,0.41,1.35
2022-12-08 20:13:43.7110,-6.43,0.13,-2.92,-0.99,-0.07,0.93
2022-12-08 20:13:43.7200,-4.07,-4.46,-2.75,-0.92,-0.42,0.62
2022-12-08 20:13:43.7300,-4.07,-4.46,-2.75,-0.88,-0.37,0.48
2022-12-08 20:13:43.7400,-1.62,-3.03,-1.44,-0.83,0.01,0.44
2022-12-08 20:13:43.7500,-0.26,-0.66,-1.38,-0.72,0.2,0.39
2022-12-08 20:13:43.7600,-0.46,0.92,-0.56,-0.61,0.23,0.3
2022-12-08 20:13:43.7700,-1.51,0.59,-0.52,-0.55,0.21,0.26
2022-12-08 20:13:43.7800,-1.12,-0.51,-0.47,-0.56,0.35,0.23
2022-12-08 20:13:43.7900,0.38,-1.47,-0.84,-0.58,0.48,0.24
2022-12-08 20:13:43.8000,1.45,-1.43,-0.84,-0.59,0.53,0.31
2022-12-08 20:13:43.8100,1.59,-0.84,-0.34,-0.6,0.59,0.32
2022-12-08 20:13:43.8200,1.0,-0.69,-0.26,-0.61,0.57,0.31
2022-12-08 20:13:43.8300,0.34,-0.54,-0.14,-0.61,0.48,0.32
2022-12-08 20:13:43.8400,-0.02,-0.3,0.24,-0.61,0.46,0.33
2022-12-08 20:13:43.8500,-0.13,-0.04,0.32,-0.62,0.51,0.32
2022-12-08 20:13:43.8600,-0.19,0.17,0.21,-0.63,0.49,0.33
2022-12-08 20:13:43.8700,-0.14,0.46,0.41,-0.61,0.45,0.34
2022-12-08 20:13:43.8800,-0.23,0.54,0.44,-0.59,0.47,0.33
2022-12-08 20:13:43.8900,-0.63,0.38,0.2,-0.59,0.43,0.33
2022-12-08 20:13:43.8990,-0.83,0.37,0.06,-0.59,0.32,0.34
2022-12-08 20:13:43.9100,-0.85,0.62,0.11,-0.59,0.24,0.31
2022-12-08 20:13:43.9190,-1.07,0.76,0.1,-0.58,0.12,0.29
2022-12-08 20:13:43.9290,-1.32,0.98,0.39,-0.58,-0.02,0.29
2022-12-08 20:13:43.9390,-1.52,1.19,0.79,-0.59,-0.14,0.29
2022-12-08 20:13:43.9490,-1.52,1.28,0.95,-0.6,-0.23,0.31
2022-12-08 20:13:43.9590,-1.34,1.38,1.07,-0.63,-0.26,0.35
2022-12-08 20:13:43.9690,-1.11,1.55,1.02,-0.69,-0.17,0.35
2022-12-08 20:13:43.9790,-0.43,1.64,0.21,-0.75,-0.06,0.36
2022-12-08 20:13:43.9890,0.7,1.5,0.03,-0.8,-0.01,0.46
2022-12-08 20:13:43.9990,2.03,0.11,0.42,-0.87,0.11,0.55
2022-12-08 20:13:44.0090,2.03,0.11,0.42,-0.96,0.18,0.64
2022-12-08 20:13:44.0190,2.11,-0.63,0.46,-1.05,0.12,0.7
2022-12-08 20:13:44.0290,1.73,-0.84,0.67,-1.14,-0.01,0.76
2022-12-08 20:13:44.0380,1.25,-0.67,0.87,-1.22,-0.13,0.81
2022-12-08 20:13:44.0490,1.1,-0.43,1.07,-1.3,-0.18,0.86
2022-12-08 20:13:44.0590,1.13,-0.51,1.29,-1.39,-0.2,0.92
2022-12-08 20:13:44.0690,1.38,-1.2,1.44,-1.51,-0.21,0.98
2022-12-08 20:13:44.0790,1.4,-1.43,1.79,-1.64,-0.25,1.05
2022-12-08 20:13:44.0890,1.4,-1.43,1.79,-1.74,-0.33,1.11
2022-12-08 20:13:44.0980,1.26,-1.63,2.25,-1.84,-0.35,1.15
2022-12-08 20:13:44.1080,0.78,-2.16,2.22,-1.94,-0.34,1.2
2022-12-08 20:13:44.1180,0.92,-2.59,2.18,-2.07,-0.29,1.26
2022-12-08 20:13:44.1280,1.7,-2.91,2.32,-2.2,-0.12,1.34
2022-12-08 20:13:44.1380,2.27,-3.31,2.75,-2.33,0.16,1.46
2022-12-08 20:13:44.1480,2.49,-3.75,3.38,-2.47,0.46,1.56
2022-12-08 20:13:44.1580,2.78,-4.9,4.27,-2.58,0.77,1.63
2022-12-08 20:13:44.1680,2.78,-4.9,4.27,-2.7,0.99,1.64
2022-12-08 20:13:44.1780,3.27,-6.15,4.44,-2.81,0.99,1.55
2022-12-08 20:13:44.1880,3.73,-8.5,5.6,-2.93,1.17,1.4
2022-12-08 20:13:44.1980,3.73,-12.12,6.24,-3.1,1.57,1.27
2022-12-08 20:13:44.2090,4.68,-14.87,7.02,-3.23,2.14,1.11
2022-12-08 20:13:44.2180,7.11,-15.04,7.7,-3.35,2.77,0.99
2022-12-08 20:13:44.2280,9.21,-13.55,7.58,-3.48,3.23,1.15
2022-12-08 20:13:44.2380,9.52,-11.2,5.89,-3.54,3.28,1.38
2022-12-08 20:13:44.2480,6.65,-10.04,5.53,-3.51,2.92,1.32
2022-12-08 20:13:44.2580,2.99,-10.68,7.26,-3.25,2.49,1.1
2022-12-08 20:13:44.2680,0.4,-10.42,8.5,-2.93,1.93,0.95
2022-12-08 20:13:44.2770,-1.65,-8.47,8.7,-2.57,1.38,0.77
2022-12-08 20:13:44.2880,-3.12,-6.44,8.13,-2.13,0.78,0.43
2022-12-08 20:13:44.2970,-3.96,-5.57,8.44,-1.67,0.27,0.1
2022-12-08 20:13:44.3070,-4.67,-4.77,8.26,-1.24,-0.17,-0.18
2022-12-08 20:13:44.3170,-4.56,-3.83,7.47,-0.79,-0.56,-0.44
2022-12-08 20:13:44.3270,-3.01,-3.05,8.38,-0.51,-0.39,-0.29
2022-12-08 20:13:44.3370,-2.35,-1.32,6.92,-0.13,-0.69,-0.44
2022-12-08 20:13:44.3470,-0.52,-0.95,6.65,0.34,-1.13,-0.77
2022-12-08 20:13:44.3570,3.39,-0.76,10.0,0.76,-1.02,-1.0
2022-12-08 20:13:44.3670,5.96,0.59,9.38,1.12,-0.53,-1.05
2022-12-08 20:13:44.3770,6.63,2.09,7.44,1.47,-0.08,-1.16
2022-12-08 20:13:44.3870,5.93,2.33,6.3,1.82,0.04,-1.37
2022-12-08 20:13:44.3970,3.88,1.7,5.96,2.18,-0.24,-1.5
2022-12-08 20:13:44.4070,1.91,1.58,5.81,2.53,-0.77,-1.61
2022-12-08 20:13:44.4170,1.15,1.36,6.11,2.85,-1.17,-1.73
2022-12-08 20:13:44.4270,1.04,1.01,6.17,3.15,-1.33,-1.87
2022-12-08 20:13:44.4370,1.01,0.85,5.72,3.46,-1.34,-2.04
2022-12-08 20:13:44.4470,0.79,0.77,5.48,3.75,-1.28,-2.17
2022-12-08 20:13:44.4570,0.3,0.5111542367935181,5.35,4.05,-1.23,-2.3
2022-12-08 20:13:44.4670,-0.19,0.51,5.35,4.34,-1.14,-2.48
2022-12-08 20:13:44.4770,-0.67,-0.14,4.94,4.6,-0.96,-2.65
2022-12-08 20:13:44.4870,-1.17,-0.6,4.12,4.83,-0.79,-2.73
2022-12-08 20:13:44.4960,-1.46,-0.58,3.28,5.07,-0.62,-2.81
2022-12-08 20:13:44.5060,-1.36,-0.79,2.29,5.28,-0.39,-2.95
2022-12-08 20:13:44.5160,-0.91,-1.47,0.94,5.46,-0.11,-3.03
2022-12-08 20:13:44.5260,-0.52,-2.14,-0.55,5.61,0.06,-3.03
2022-12-08 20:13:44.5360,-0.43,-2.75,-1.58,5.75,0.12,-2.98
2022-12-08 20:13:44.5460,-0.8,-3.64,-2.15,5.89,0.22,-2.91
2022-12-08 20:13:44.5560,-1.64,-4.61,-2.97,5.99,0.44,-2.85
2022-12-08 20:13:44.5660,-2.68,-5.67,-3.82,6.05,0.77,-2.77
2022-12-08 20:13:44.5760,-3.56,-6.84,-4.84,6.03,1.08,-2.64
2022-12-08 20:13:44.5860,-4.49,-7.85,-6.22,5.93,1.27,-2.49
2022-12-08 20:13:44.5960,-5.87,-8.69,-7.56,5.75,1.27,-2.36
2022-12-08 20:13:44.6060,-6.98,-9.28,-9.07,5.42,1.05,-2.27
2022-12-08 20:13:44.6160,-7.12,-9.53,-10.59,4.92,0.72,-2.2
2022-12-08 20:13:44.6260,-6.26,-9.3,-12.3,4.29,0.45,-2.02
2022-12-08 20:13:44.6360,-5.11,-7.85,-13.8,3.62,0.35,-1.69
2022-12-08 20:13:44.6460,-4.68,-5.63,-14.88,2.96,0.41,-1.27
2022-12-08 20:13:44.6560,-5.69,-3.67,-16.05,2.2,0.72,-0.82
2022-12-08 20:13:44.6660,-7.35,-1.84,-17.77,1.26,1.02,-0.37
2022-12-08 20:13:44.6760,-8.02,0.05,-18.98,0.29,1.04,0.16
2022-12-08 20:13:44.6860,-7.17,2.29,-19.12,-0.49,0.6,0.6
2022-12-08 20:13:44.6960,-5.92,3.4,-18.17,-1.07,0.19,0.84
2022-12-08 20:13:44.7060,-5.86,2.66,-16.63,-1.58,0.19,1.02
2022-12-08 20:13:44.7150,-6.13,1.4,-16.26,-2.01,0.15,1.2
2022-12-08 20:13:44.7250,-5.17,0.08,-14.76,-2.32,-0.1,1.38
2022-12-08 20:13:44.7350,-3.76,-1.01,-12.59,-2.58,-0.51,1.51
2022-12-08 20:13:44.7450,-3.44,-1.74,-9.84,-2.38,-1.45,1.53
2022-12-08 20:13:44.7550,-3.5,-2.86,-5.5,-1.85,-2.73,1.13
2022-12-08 20:13:44.7650,1.41,-6.26,15.06,-0.52,-4.33,0.44
2022-12-08 20:13:44.7750,1.41,-6.26,15.06,0.03,-3.88,-0.23
2022-12-08 20:13:44.7850,15.89,-2.64,-9.7,-0.83,0.94,0.09
2022-12-08 20:13:44.7950,15.89,-2.64,-9.7,-1.56,3.37,0.83
2022-12-08 20:13:44.8050,11.29,-3.37,-23.21,-1.91,0.91,2.33
2022-12-08 20:13:44.8150,-1.1,-9.63,-2.32,-2.27,-1.35,3.9
2022-12-08 20:13:44.8250,-10.68,-9.42,-0.83,-2.48,-1.51,4.11
2022-12-08 20:13:44.8350,-11.83,-5.29,-6.96,-2.3,-0.88,2.47
2022-12-08 20:13:44.8450,-5.62,-4.3,-5.7,-1.8,-0.17,1.28
2022-12-08 20:13:44.8550,-1.34,1.18,-3.56,-1.44,0.09,1.4
2022-12-08 20:13:44.8650,-1.4,5.61,-2.39,-1.26,0.11,1.25
2022-12-08 20:13:44.8750,-3.13,1.3,-4.18,-1.11,-0.13,0.97
2022-12-08 20:13:44.8850,-4.05,-2.77,-3.7,-1.01,-0.42,0.83
2022-12-08 20:13:44.8950,-4.04,-3.27,-2.44,-0.93,-0.38,0.67
2022-12-08 20:13:44.9050,-2.34,-2.72,-2.49,-0.85,-0.22,0.58
2022-12-08 20:13:44.9140,-0.25,-1.04,-2.13,-0.76,0.06,0.59
2022-12-08 20:13:44.9250,0.73,0.21,-1.14,-0.69,0.33,0.53
2022-12-08 20:13:44.9350,0.06,0.07,-1.03,-0.62,0.29,0.43
2022-12-08 20:13:44.9440,-1.45,-0.58,-0.83,-0.55,0.09,0.35
2022-12-08 20:13:44.9540,-1.83,-0.89,-0.46,-0.51,0.08,0.3
2022-12-08 20:13:44.9640,-0.75,-1.05,-0.63,-0.5,0.17,0.27
2022-12-08 20:13:44.9740,0.52,-0.88,-0.85,-0.49,0.28,0.28
2022-12-08 20:13:44.9840,0.31,-0.37,-0.55,-0.47,0.41,0.28
2022-12-08 20:13:44.9940,0.31,-0.37,-0.55,-0.46,0.48,0.29
2022-12-08 20:13:45.0040,-0.07,-0.31,-0.17,-0.45,0.53,0.3
2022-12-08 20:13:45.0140,-0.07,-0.31,-0.17,-0.44,0.57,0.3
2022-12-08 20:13:45.0240,0.05,-0.16,-0.01,-0.45,0.58,0.3
2022-12-08 20:13:45.0340,-0.06,0.09,0.06,-0.46,0.55,0.3
2022-12-08 20:13:45.0440,-0.06,0.09,0.06,-0.46,0.47,0.31
2022-12-08 20:13:45.0530,-0.32,0.33,0.41,-0.46,0.42,0.3
2022-12-08 20:13:45.0640,-0.34,0.28,0.43,-0.47,0.4,0.3
2022-12-08 20:13:45.0740,-0.31,0.28,0.39,-0.49,0.39,0.3
2022-12-08 20:13:45.0830,-0.31,0.28,0.39,-0.49,0.36,0.32
2022-12-08 20:13:45.0930,-0.4,0.49,0.5,-0.5,0.37,0.33
2022-12-08 20:13:45.1030,-0.72,1.0,0.25,-0.52,0.37,0.33
2022-12-08 20:13:45.1130,-0.6909686896204948,1.14,0.47,-0.54,0.32,0.34
2022-12-08 20:13:45.1230,-0.43,1.16,0.57,-0.57,0.29,0.37
2022-12-08 20:13:45.1330,-0.43,1.16,0.57,-0.6,0.25,0.39
2022-12-08 20:13:45.1430,0.05,1.05,0.49,-0.62,0.21,0.38
2022-12-08 20:13:45.1530,0.15,0.3,0.09,-0.65,0.15,0.37
2022-12-08 20:13:45.1630,0.15,0.3,0.09,-0.69,0.12,0.38
2022-12-08 20:13:45.1730,0.2,-0.03,0.01,-0.76,0.11,0.42
2022-12-08 20:13:45.1830,0.85,-0.31,0.22,-0.86,0.06,0.52
2022-12-08 20:13:45.1930,1.74,-0.26,1.58,-0.97,0.09,0.62
2022-12-08 20:13:45.2030,1.6,-0.11,1.79,-1.1,0.09,0.7
2022-12-08 20:13:45.2130,1.6,-0.11,1.79,-1.23,0.0,0.78
2022-12-08 20:13:45.2230,1.21,-0.04,1.92,-1.35,-0.07,0.87
2022-12-08 20:13:45.2330,1.3,-0.39,1.68,-1.46,-0.06,0.94
2022-12-08 20:13:45.2430,1.2,-1.01,1.59,-1.57,-0.01,1.0
2022-12-08 20:13:45.2530,1.28,-1.69,1.89,-1.68,0.07,1.08
2022-12-08 20:13:45.2630,1.28,-1.69,1.89,-1.79,0.2,1.16
2022-12-08 20:13:45.2730,1.59,-2.26,2.0,-1.91,0.29,1.23
2022-12-08 20:13:45.2820,1.71,-2.65,1.72,-2.02,0.32,1.27
2022-12-08 20:13:45.2920,1.59,-2.7,1.63,-2.11,0.36,1.3
2022-12-08 20:13:45.3020,1.21,-3.08,2.24,-2.21,0.41,1.34
2022-12-08 20:13:45.3120,1.21,-3.08,2.24,-2.31,0.53,1.39
2022-12-08 20:13:45.3220,1.74,-4.31,3.06,-2.43,0.71,1.43
2022-12-08 20:13:45.3320,1.74,-4.31,3.06,-2.55,0.88,1.47
2022-12-08 20:13:45.3420,2.2,-4.77,3.52,-2.67,1.08,1.49
2022-12-08 20:13:45.3520,3.64,-7.07,4.64,-2.81,1.19,1.47
2022-12-08 20:13:45.3620,3.64,-7.07,4.64,-2.87,1.34,1.39
2022-12-08 20:13:45.3720,4.25,-9.23,5.57,-2.97,1.6,1.25
2022-12-08 20:13:45.3820,6.24,-14.13,6.51,-3.12,1.8,1.09
2022-12-08 20:13:45.3930,8.3,-13.71,7.66,-3.27,2.11,0.93
2022-12-08 20:13:45.4020,10.36,-12.26,7.48,-3.41,2.67,0.73
2022-12-08 20:13:45.4120,10.36,-12.26,7.48,-3.53,3.33,0.67
2022-12-08 20:13:45.4210,11.61,-10.74,6.63,-3.56,3.33,1.13
2022-12-08 20:13:45.4320,8.66,-8.28,6.78,-3.49,2.48,1.61
2022-12-08 20:13:45.4420,2.12,-7.49,8.85,-3.32,1.81,1.64
2022-12-08 20:13:45.4510,-4.8,-9.73,6.16,-3.01,1.26,1.19
2022-12-08 20:13:45.4620,-4.8,-9.69,7.93,-2.61,0.67,0.53
2022-12-08 20:13:45.4710,-5.69,-9.69,7.93,-2.14,-0.07,-0.02
2022-12-08 20:13:45.4820,-5.59,-8.02,9.91,-1.68,-0.75,-0.25
2022-12-08 20:13:45.4910,-4.77,-5.62,9.92,-1.26,-1.21,-0.39
2022-12-08 20:13:45.5010,-3.7,-4.05,8.48,-0.85,-1.27,-0.67
2022-12-08 20:13:45.5110,-1.89,-3.1,6.95,-0.52,-0.78,-0.65
2022-12-08 20:13:45.5210,-0.18,-1.78,5.76,-0.27,-0.43,-0.39
2022-12-08 20:13:45.5310,0.07,0.04,7.29,0.1,-0.94,-0.53
2022-12-08 20:13:45.5410,0.07,0.04,7.29,0.52,-1.22,-0.91
2022-12-08 20:13:45.5510,4.89,0.92,7.92,0.91,-1.12,-1.24
2022-12-08 20:13:45.5610,4.89,0.92,7.92,1.26,-0.81,-1.37
2022-12-08 20:13:45.5710,5.42,2.23,7.04,1.61,-0.54,-1.47
2022-12-08 20:13:45.5810,5.35,2.83,6.48,1.95,-0.4,-1.68
2022-12-08 20:13:45.5910,4.62,2.6,6.25,2.3,-0.46,-1.87
2022-12-08 20:13:45.6010,3.56,2.58,6.06,2.62,-0.67,-2.02
2022-12-08 20:13:45.6110,2.93,2.57,5.94,2.92,-0.81,-2.18
2022-12-08 20:13:45.6210,2.53,2.14,5.49,3.19,-0.86,-2.34
2022-12-08 20:13:45.6310,1.98,1.84,5.17,3.46,-0.88,-2.45
2022-12-08 20:13:45.6410,1.29,1.86,5.01,3.74,-0.88,-2.56
2022-12-08 20:13:45.6510,0.13,1.28,5.17,4.02,-0.89,-2.72
2022-12-08 20:13:45.6610,0.13,1.28,5.17,4.3,-0.82,-2.88
2022-12-08 20:13:45.6710,0.4,0.03,4.18,4.56,-0.63,-3.06
2022-12-08 20:13:45.6810,0.18,-0.68,2.65,4.78,-0.31,-3.21
2022-12-08 20:13:45.6910,-0.46,-1.17,1.16,4.99,-0.11,-3.3
2022-12-08 20:13:45.7010,-0.46,-1.17,1.16,5.18,0.02,-3.27
2022-12-08 20:13:45.7100,-1.93,-1.22,-0.24,5.38,-0.04,-3.19
2022-12-08 20:13:45.7200,-2.88,-1.45,-0.85,5.56,-0.1,-3.13
2022-12-08 20:13:45.7300,-2.3,-2.55,-1.31,5.67,-0.16,-3.09
2022-12-08 20:13:45.7400,-1.2,-4.22,-2.15,5.65,-0.18,-3.01
2022-12-08 20:13:45.7500,-1.52,-5.59,-3.9,5.57,-0.21,-2.83
2022-12-08 20:13:45.7600,-3.87,-6.64,-5.55,5.49,-0.53,-2.64
2022-12-08 20:13:45.7700,-7.11,-7.38,-5.83,5.39,-1.1,-2.53
2022-12-08 20:13:45.7800,-9.38,-8.06,-6.12,5.22,-1.53,-2.56
2022-12-08 20:13:45.7900,-10.2,-8.3,-7.68,4.93,-1.61,-2.72
2022-12-08 20:13:45.8000,-9.41,-8.46,-9.68,4.49,-1.27,-2.84
2022-12-08 20:13:45.8100,-7.54,-8.16,-11.59,3.95,-0.69,-2.72
2022-12-08 20:13:45.8200,-5.76,-7.31,-12.76,3.41,-0.22,-2.23
2022-12-08 20:13:45.8300,-5.13,-5.59,-12.54,2.95,0.12,-1.62
2022-12-08 20:13:45.8400,-6.95,-3.82,-11.88,2.49,0.68,-1.15
2022-12-08 20:13:45.8500,-11.63,-2.85,-13.36,1.89,1.29,-0.86
2022-12-08 20:13:45.8600,-11.63,-2.85,-13.36,1.19,1.59,-0.49
2022-12-08 20:13:45.8700,-10.85,-0.88,-13.62,0.5,1.53,-0.02
2022-12-08 20:13:45.8790,-8.76,1.52,-13.32,-0.14,1.42,0.36
2022-12-08 20:13:45.8900,-7.84,2.29,-13.41,-0.74,1.23,0.73
2022-12-08 20:13:45.9000,-8.58,2.23,-13.69,-1.34,0.9,1.07
2022-12-08 20:13:45.9100,-9.44,1.63,-14.51,-1.78,0.64,1.32
2022-12-08 20:13:45.9200,-8.19,0.31,-13.61,-2.12,0.24,1.66
2022-12-08 20:13:45.9290,-6.08,-0.45,-11.5,-2.01,-1.22,1.89
2022-12-08 20:13:45.9400,-5.17,-1.95,-7.12,-0.73,-5.5,0.44
2022-12-08 20:13:45.9490,12.32,-16.36,17.8,-0.85,-3.32,-0.47
2022-12-08 20:13:45.9600,12.32,-16.36,17.8,-1.95,1.94,0.6
2022-12-08 20:13:45.9690,15.04,-3.77,-21.14,-2.66,2.07,2.44
2022-12-08 20:13:45.9790,3.84,-2.76,-14.12,-2.72,-1.6,3.95
2022-12-08 20:13:45.9890,-7.65,-8.47,1.85,-2.42,-4.2,3.77
2022-12-08 20:13:45.9990,-10.22,-9.22,3.95,-2.19,-2.99,2.58
2022-12-08 20:13:46.0090,-5.74,-0.59,-4.96,-1.87,0.15,1.77
2022-12-08 20:13:46.0190,-2.25,6.91,-2.274233597517014,-1.48,0.68,1.63
2022-12-08 20:13:46.0290,-1.98,6.87,-2.28,-1.2,0.28,1.65
2022-12-08 20:13:46.0390,-3.46,1.92,-0.59,-1.25,0.39,1.55
2022-12-08 20:13:46.0490,-1.71,-2.56,-5.45,-1.3,-0.0,1.55
2022-12-08 20:13:46.0590,-0.02,-5.55,-3.89,-1.35,-0.31,1.59
2022-12-08 20:13:46.0690,-0.45,-5.67,-1.43,-1.35,-0.05,1.32
2022-12-08 20:13:46.0780,-2.11,-3.0,-2.6,-1.19,-0.03,1.06
2022-12-08 20:13:46.0880,-2.21,0.02,-1.89,-0.95,-0.21,0.88
2022-12-08 20:13:46.0990,-1.71,1.52,-1.77,-0.76,-0.29,0.68
2022-12-08 20:13:46.1080,-1.1963901700079442,-1.28,-1.42,-0.65,-0.23,0.63
2022-12-08 20:13:46.1180,-1.2,-1.28,-1.42,-0.61,-0.01,0.68
2022-12-08 20:13:46.1280,0.51,-1.21,-1.27,-0.62,0.38,0.78
2022-12-08 20:13:46.1380,1.0738560649752618,-0.4,-1.07,-0.61,0.57,0.78
2022-12-08 20:13:46.1480,1.07,-0.4,-1.07,-0.56,0.48,0.71
2022-12-08 20:13:46.1580,-0.82,-0.1,-0.7,-0.5,0.29,0.6
2022-12-08 20:13:46.1680,-1.96,-0.47,0.0,-0.46,0.19,0.48
2022-12-08 20:13:46.1780,-1.96,-0.47,0.0,-0.44,0.15,0.38
2022-12-08 20:13:46.1880,-1.29,-0.87,-0.08,-0.43,0.19,0.37
2022-12-08 20:13:46.1980,-0.37,-0.6,-0.16,-0.42,0.31,0.4
2022-12-08 20:13:46.2080,0.43,-0.15,-0.2,-0.4,0.45,0.42
2022-12-08 20:13:46.2180,0.65,-0.02,-0.36,-0.37,0.53,0.44
2022-12-08 20:13:46.2280,0.44,0.06,-0.48,-0.36,0.52,0.45
2022-12-08 20:13:46.2380,0.2,0.07,-0.6,-0.36,0.43,0.44
2022-12-08 20:13:46.2480,0.02,0.08,-0.43,-0.37,0.34,0.4
2022-12-08 20:13:46.2580,-0.25,-0.06,-0.14,-0.39,0.31,0.36
2022-12-08 20:13:46.2680,-0.48,-0.23,0.03,-0.42,0.27,0.35
2022-12-08 20:13:46.2780,-0.35,-0.22,0.43,-0.45,0.31,0.38
2022-12-08 20:13:46.2870,-0.06,-0.05,0.82,-0.48,0.4,0.4
2022-12-08 20:13:46.2980,0.08,0.05,0.82,-0.51,0.48,0.4
2022-12-08 20:13:46.3080,0.05,0.1,0.7,-0.54,0.51,0.43
2022-12-08 20:13:46.3170,-0.03,0.28,0.63,-0.57,0.49,0.46
2022-12-08 20:13:46.3270,0.0,0.37,0.53,-0.61,0.46,0.48
2022-12-08 20:13:46.3370,0.23,0.34,0.47,-0.66,0.4,0.51
2022-12-08 20:13:46.3470,0.48,0.36,0.73,-0.71,0.35,0.55
2022-12-08 20:13:46.3570,0.65,0.24,0.9,-0.78,0.34,0.58
2022-12-08 20:13:46.3670,0.74,0.09,0.75,-0.86,0.33,0.63
2022-12-08 20:13:46.3770,0.92,0.25,0.74,-0.95,0.33,0.69
2022-12-08 20:13:46.3870,1.16,0.45,0.82,-1.03,0.33,0.77
2022-12-08 20:13:46.3970,1.0,0.2,1.62,-1.11,0.33,0.84
2022-12-08 20:13:46.4070,1.0,0.2,1.62,-1.22,0.33,0.94
2022-12-08 20:13:46.4170,0.96,-0.44,2.1,-1.35,0.3,1.02
2022-12-08 20:13:46.4270,1.09,-1.13,2.41,-1.49,0.3,1.06
2022-12-08 20:13:46.4370,1.17,-1.73,2.36,-1.62,0.31,1.13
2022-12-08 20:13:46.4470,1.51,-2.12,2.36,-1.77,0.37,1.24
2022-12-08 20:13:46.4570,2.26,-2.29,2.21,-1.93,0.45,1.33
2022-12-08 20:13:46.4670,3.04,-2.33,2.11,-2.09,0.49,1.43
2022-12-08 20:13:46.4770,3.23,-2.64,2.66,-2.24,0.56,1.56
2022-12-08 20:13:46.4870,2.73,-4.44,4.46,-2.39,0.7,1.66
2022-12-08 20:13:46.4970,2.73,-4.44,4.46,-2.56,0.89,1.72
2022-12-08 20:13:46.5070,2.91,-5.49,4.99,-2.77,0.92,1.73
2022-12-08 20:13:46.5160,3.39,-6.89,6.13,-2.89,1.06,1.61
2022-12-08 20:13:46.5260,3.64,-9.75,7.06,-3.06,1.51,1.42
2022-12-08 20:13:46.5370,4.2,-13.73,7.04,-3.22,2.06,1.3
2022-12-08 20:13:46.5470,6.36,-15.72,7.35,-3.35,2.67,1.19
2022-12-08 20:13:46.5570,8.92,-14.97,7.16,-3.5,3.23,1.22
2022-12-08 20:13:46.5660,10.2,-12.73,5.58,-3.6,3.51,1.31
2022-12-08 20:13:46.5760,9.2,-10.9,4.63,-3.65,3.19,1.4
2022-12-08 20:13:46.5860,5.76,-10.1,6.61,-3.43,2.71,1.41
2022-12-08 20:13:46.5960,2.39,-9.61,8.94,-3.16,2.1,1.49
2022-12-08 20:13:46.6060,-0.77,-8.65,8.29,-2.8,1.27,1.33
2022-12-08 20:13:46.6160,-3.1,-8.12,8.54,-2.35,0.61,0.89
2022-12-08 20:13:46.6260,-3.96,-7.92,8.81,-1.89,0.2,0.39
2022-12-08 20:13:46.6360,-4.35,-7.0,8.87,-1.45,-0.2,0.06
2022-12-08 20:13:46.6460,-4.26,-5.69,8.07,-1.04,-0.57,-0.17
2022-12-08 20:13:46.6560,-3.22,-4.4,7.66,-0.62,-0.63,-0.33
2022-12-08 20:13:46.6660,-0.45,-3.48,7.49,-0.41,-0.15,-0.09
2022-12-08 20:13:46.6760,-0.98,-1.44,5.85,-0.04,-0.58,-0.16
2022-12-08 20:13:46.6860,-1.06,-0.53,6.21,0.42,-1.13,-0.52
Time,5.06,0.58,8.88,0.85,-1.2,-0.86
2022-12-08 20:13:46.7060,5.06,0.58,8.88,1.22,-0.91,-1.06
2022-12-08 20:13:46.7150,6.04,1.76,7.53,1.56,-0.52,-1.24
2022-12-08 20:13:46.7250,5.68,2.3,6.19,1.9,-0.3,-1.52
2022-12-08 20:13:46.7350,2.8651494106650355,2.27,5.41,2.25,-0.39,-1.74
2022-12-08 20:13:46.7450,2.86,2.27,5.41,2.6,-0.73,-1.84
2022-12-08 20:13:46.7550,2.13,2.69,5.57,2.93,-0.95,-1.95
2022-12-08 20:13:46.7650,1.96,2.41,5.51,3.22,-0.9,-2.13
2022-12-08 20:13:46.7750,2.15,1.88,5.11,3.49,-0.69,-2.28
2022-12-08 20:13:46.7850,2.27,1.73,4.94,3.76,-0.5,-2.39
2022-12-08 20:13:46.7950,1.89,1.71,4.98,4.05,-0.37,-2.51
2022-12-08 20:13:46.8050,1.16,1.41,4.8,4.32,-0.22,-2.63
2022-12-08 20:13:46.8150,0.42,0.84,4.17,4.56,-0.07,-2.72
2022-12-08 20:13:46.8250,-0.09,0.18,3.34,4.79,0.04,-2.79
2022-12-08 20:13:46.8350,-0.43,-0.46,2.47,5.01,0.06,-2.83
2022-12-08 20:13:46.8450,-0.87,-0.8,1.63,5.21,0.07,-2.86
2022-12-08 20:13:46.8550,-1.23,-1.1,0.42,5.4,0.06,-2.88
2022-12-08 20:13:46.8650,-1.34,-1.67,-0.49,5.56,-0.04,-2.88
2022-12-08 20:13:46.8750,-1.27,-2.26,-1.36,5.68,-0.12,-2.91
2022-12-08 20:13:46.8850,-1.09,-3.09,-2.74,5.73,-0.2,-2.97
2022-12-08 20:13:46.8950,-1.24,-4.15,-4.32,5.71,-0.31,-3.01
2022-12-08 20:13:46.9040,-1.98,-5.22,-5.34,5.65,-0.51,-2.94
2022-12-08 20:13:46.9140,-3.55,-5.94,-5.94,5.56,-0.87,-2.89
2022-12-08 20:13:46.9240,-5.06,-6.91,-6.37,5.42,-1.21,-2.95
2022-12-08 20:13:46.9340,-6.19,-8.1,-7.44,5.2,-1.48,-3.08
2022-12-08 20:13:46.9440,-6.496375873088837,-9.38,-10.2,4.88,-1.55,-3.15
2022-12-08 20:13:46.9540,-6.5,-9.38,-10.2,4.46,-1.53,-3.06
2022-12-08 20:13:46.9640,-6.13,-8.95,-11.19,3.98,-1.46,-2.77
2022-12-08 20:13:46.9740,-7.4,-7.09,-12.95,3.46,-1.16,-2.36
2022-12-08 20:13:46.9840,-7.4,-7.09,-12.95,2.81,-0.47,-1.91
2022-12-08 20:13:46.9940,-8.65,-5.59,-14.0,2.08,0.39,-1.33
2022-12-08 20:13:47.0040,-9.3,-2.8,-15.42,1.29,1.08,-0.71
2022-12-08 20:13:47.0140,-9.43,0.12,-15.86,0.47,1.41,-0.11
2022-12-08 20:13:47.0240,-9.61,1.9,-15.61,-0.25,1.3,0.39
2022-12-08 20:13:47.0340,-10.21,1.67,-12.97,-0.8,0.9,0.74
2022-12-08 20:13:47.0440,-10.21,1.67,-12.97,-1.21,0.59,0.99
2022-12-08 20:13:47.0540,-10.46,0.64,-11.96,-1.55,0.42,1.21
2022-12-08 20:13:47.0640,-9.81,-0.25,-11.3,-1.76,0.23,1.39
2022-12-08 20:13:47.0730,-8.23,-0.99,-9.97,-1.97,0.03,1.59
2022-12-08 20:13:47.0840,-6.67,-1.2,-8.64,-2.08,-0.45,1.87
2022-12-08 20:13:47.0940,-6.3,-0.95,-7.98,-1.62,-1.75,1.85
2022-12-08 20:13:47.1040,-6.3,-2.72,-0.33,-0.14,-5.41,0.72
2022-12-08 20:13:47.1140,-2.2,-10.26,26.94,-0.42,-4.07,-0.7
2022-12-08 20:13:47.1250,11.72,-15.05,15.74,-1.57,1.44,-0.42
2022-12-08 20:13:47.1330,17.24,-4.82,-25.15,-2.08,2.28,0.81
2022-12-08 20:13:47.1430,10.08,-2.83,-16.95,-1.88,-0.72,2.75
2022-12-08 20:13:47.1530,-8.31,-2.14,1.77,-2.0,-1.81,4.28
2022-12-08 20:13:47.1630,-7.35,-1.67,-9.5,-1.96,-0.99,3.84
2022-12-08 20:13:47.1730,-4.78,-2.58,-7.22,-1.82,-0.16,2.4
2022-12-08 20:13:47.1830,-4.78,-2.58,-7.22,-1.48,-0.16,1.7
2022-12-08 20:13:47.1930,-4.32,0.91,0.31,-1.25,-0.23,1.68
2022-12-08 20:13:47.2030,-3.35,-1.03,-4.31,-1.2,0.1,1.44
2022-12-08 20:13:47.2130,-3.35,-1.03,-4.31,-1.1,-0.12,1.19
2022-12-08 20:13:47.2230,-2.68,-2.54,-3.27,-0.99,-0.28,1.16
2022-12-08 20:13:47.2330,-2.53,-1.75,-2.06,-0.92,-0.23,1.03
2022-12-08 20:13:47.2430,-2.39,-1.27,-2.22,-0.86,-0.07,0.9
2022-12-08 20:13:47.2530,-1.16,-0.78,-1.39,-0.77,0.05,0.85
2022-12-08 20:13:47.2630,-0.13,0.05,-1.13,-0.69,0.16,0.78
2022-12-08 20:13:47.2730,0.32,-0.2,-1.0,-0.63,0.19,0.66
2022-12-08 20:13:47.2830,-0.46,-1.18,-0.94,-0.57,0.07,0.54
2022-12-08 20:13:47.2930,-1.3,-0.96,-0.52,-0.5,-0.04,0.51
2022-12-08 20:13:47.3030,-0.1,-0.55,-0.48,-0.46,0.12,0.51
2022-12-08 20:13:47.3120,-0.1,-0.55,-0.48,-0.44,0.36,0.51
2022-12-08 20:13:47.3220,0.73,-0.38,-0.37,-0.42,0.44,0.55
2022-12-08 20:13:47.3320,0.02,-0.19,-0.09,-0.42,0.49,0.54
2022-12-08 20:13:47.3420,-0.58,-0.4,-0.07,-0.42,0.51,0.51
2022-12-08 20:13:47.3520,-0.58,-0.4,-0.07,-0.4,0.47,0.47
2022-12-08 20:13:47.3620,-0.78,-0.28,-0.16,-0.38,0.43,0.45
2022-12-08 20:13:47.3720,-0.56,-0.04,-0.21,-0.38,0.39,0.45
2022-12-08 20:13:47.3820,-0.09,0.2,-0.25,-0.37,0.35,0.47
2022-12-08 20:13:47.3920,0.18,0.31,-0.15,-0.37,0.35,0.47
2022-12-08 20:13:47.4020,0.24,0.13,-0.09,-0.38,0.4,0.46
2022-12-08 20:13:47.4120,0.25,-0.11,-0.07,-0.41,0.45,0.47
2022-12-08 20:13:47.4220,0.22,-0.15,0.03,-0.43,0.47,0.47
2022-12-08 20:13:47.4320,0.11,-0.06,0.06,-0.45,0.45,0.47
2022-12-08 20:13:47.4420,-0.11,0.25,0.2,-0.47,0.44,0.46
2022-12-08 20:13:47.4520,-0.4,0.6,0.2,-0.5,0.41,0.47
2022-12-08 20:13:47.4620,-0.54,0.96,0.33,-0.52,0.37,0.51
2022-12-08 20:13:47.4720,-0.37,1.28,0.58,-0.54,0.35,0.53
2022-12-08 20:13:47.4820,-0.2,1.19,0.61,-0.56,0.38,0.54
2022-12-08 20:13:47.4920,-0.15,0.93,0.52,-0.59,0.35,0.57
2022-12-08 20:13:47.5020,0.02,0.71,0.52,-0.62,0.31,0.6
2022-12-08 20:13:47.5120,0.28,0.41,0.5,-0.66,0.32,0.63
2022-12-08 20:13:47.5220,0.49,0.08,0.35,-0.72,0.36,0.67
2022-12-08 20:13:47.5320,0.86,-0.08,0.3,-0.8,0.39,0.74
2022-12-08 20:13:47.5420,1.35,-0.11,0.58,-0.9,0.38,0.84
2022-12-08 20:13:47.5520,1.85,-0.14,1.53,-1.02,0.39,0.93
2022-12-08 20:13:47.5610,1.85,-0.14,1.53,-1.15,0.38,1.0
2022-12-08 20:13:47.5710,1.7,-0.38,1.78,-1.28,0.29,1.08
2022-12-08 20:13:47.5810,1.48,-0.73,1.94,-1.42,0.16,1.13
2022-12-08 20:13:47.5910,1.15,-1.26,2.0,-1.53,0.14,1.19
2022-12-08 20:13:47.6010,0.91,-1.63,2.0,-1.64,0.19,1.25
2022-12-08 20:13:47.6110,1.4,-2.02,1.81,-1.77,0.28,1.35
2022-12-08 20:13:47.6210,2.05,-2.24,1.78,-1.92,0.31,1.45
2022-12-08 20:13:47.6310,2.27,-2.24,2.04,-2.05,0.35,1.53
2022-12-08 20:13:47.6410,1.93,-2.6448464977741244,3.11,-2.15,0.41,1.6
2022-12-08 20:13:47.6510,1.47,-2.65,3.11,-2.24,0.51,1.65
2022-12-08 20:13:47.6610,1.21,-3.39,3.56,-2.35,0.66,1.68
2022-12-08 20:13:47.6710,1.35,-4.56,3.79,-2.46,0.88,1.72
2022-12-08 20:13:47.6810,2.06,-5.75,3.93,-2.62,1.07,1.74
2022-12-08 20:13:47.6910,3.33,-7.01,4.31,-2.73,1.23,1.7
2022-12-08 20:13:47.7010,4.45,-8.7,5.38,-2.81,1.51,1.64
2022-12-08 20:13:47.7100,5.12,-11.14,6.03,-2.94,1.95,1.53
2022-12-08 20:13:47.7220,6.26,-13.4,6.28,-3.06,2.42,1.35
2022-12-08 20:13:47.7320,8.5,-14.11,6.61,-3.21,2.98,1.09
2022-12-08 20:13:47.7410,13.18,-12.12,5.99,-3.38,3.67,0.88
2022-12-08 20:13:47.7500,13.18,-12.12,5.99,-3.55,4.28,1.08
2022-12-08 20:13:47.7600,12.75,-9.34,4.24,-3.46,3.98,1.54
2022-12-08 20:13:47.7700,6.16,-7.07,5.53,-3.25,2.86,2.02
2022-12-08 20:13:47.7800,-1.53,-7.4,7.32,-2.96,1.79,2.03
2022-12-08 20:13:47.7900,-5.78,-8.35,6.91,-2.53,0.72,1.27
2022-12-08 20:13:47.8000,-5.45,-9.04,7.14,-2.02,0.19,0.33
2022-12-08 20:13:47.8100,-4.86,-8.06,8.6,-1.57,-0.06,-0.09
2022-12-08 20:13:47.8200,-4.53,-5.02,8.7,-1.12,-0.55,-0.17
2022-12-08 20:13:47.8300,-2.41,-2.64,8.57,-0.67,-0.83,-0.35
2022-12-08 20:13:47.8400,2.65,-0.95,7.23,-0.28,-0.41,-0.43
2022-12-08 20:13:47.8500,2.65,-0.95,7.23,-0.08,0.5,-0.11
2022-12-08 20:13:47.8600,1.21,0.86,5.61,0.28,0.29,-0.17
2022-12-08 20:13:47.8700,0.41,0.62,6.35,0.72,-0.24,-0.45
2022-12-08 20:13:47.8800,2.63,0.33,9.39,1.14,-0.43,-0.74
2022-12-08 20:13:47.8900,3.99,0.9,9.05,1.53,-0.43,-0.93
2022-12-08 20:13:47.9000,4.01,1.9842730969190598,6.98,1.87,-0.41,-1.12
2022-12-08 20:13:47.9100,3.72,1.98,6.98,2.21,-0.42,-1.44
2022-12-08 20:13:47.9200,3.41,1.71,6.19,2.53,-0.46,-1.78
2022-12-08 20:13:47.9300,3.15,1.57,5.52,2.84,-0.62,-1.96
2022-12-08 20:13:47.9400,3.07,1.89,5.24,3.13,-0.77,-2.03
2022-12-08 20:13:47.9490,3.0,2.0,5.19,3.39,-0.76,-2.13
2022-12-08 20:13:47.9590,2.54,1.5,4.82,3.63,-0.68,-2.28
2022-12-08 20:13:47.9690,1.95,0.87,4.8,3.89,-0.65,-2.46
2022-12-08 20:13:47.9790,1.65,0.43,4.93,4.14,-0.55,-2.65
2022-12-08 20:13:47.9890,1.59,0.01,4.54,4.36,-0.31,-2.84
2022-12-08 20:13:47.9990,1.53,-0.5,3.56,4.56,-0.02,-2.96
2022-12-08 20:13:48.0090,1.25,-0.8,2.48,4.75,0.23,-3.03
2022-12-08 20:13:48.0190,0.55,-1.16,1.44,4.94,0.42,-3.09
2022-12-08 20:13:48.0290,-0.34,-1.8,0.48,5.12,0.57,-3.1
2022-12-08 20:13:48.0390,-0.8,-2.28,-1.091945888400078,5.28,0.71,-3.08
2022-12-08 20:13:48.0490,-0.73,-2.79,-1.1,5.43,0.77,-3.0
2022-12-08 20:13:48.0590,-0.76,-3.42,-1.9,5.57,0.75,-2.95
2022-12-08 20:13:48.0690,-1.21,-4.28,-2.61,5.71,0.68,-2.88
2022-12-08 20:13:48.0790,-3.0,-6.18,-3.95,5.82,0.53,-2.74
2022-12-08 20:13:48.0890,-3.0,-6.18,-3.95,5.87,0.3,-2.6
2022-12-08 20:13:48.0990,-4.65,-7.53,-4.53,5.84,0.05,-2.45
2022-12-08 20:13:48.1090,-6.18,-8.65,-5.64,5.72,-0.21,-2.34
2022-12-08 20:13:48.1190,-7.02,-9.42,-7.13,5.49,-0.43,-2.34
2022-12-08 20:13:48.1290,-7.02,-9.79,-9.12,5.11,-0.46,-2.31
2022-12-08 20:13:48.1380,-6.94,-9.18,-11.43,4.58,-0.62,-2.23
2022-12-08 20:13:48.1480,-6.55,-8.43,-12.81,3.95,-0.97,-2.03
2022-12-08 20:13:48.1580,-6.23,-7.61,-13.2,3.32,-1.22,-1.63
2022-12-08 20:13:48.1680,-9.83,-3.84,-15.49,2.64,-1.06,-1.04
2022-12-08 20:13:48.1780,-9.83,-3.84,-15.49,1.59,-0.39,-0.31
2022-12-08 20:13:48.1880,-11.56,-1.04,-17.76,0.39,0.44,0.45
2022-12-08 20:13:48.1980,-12.48,2.1,-19.03,-0.46,0.44,1.02
2022-12-08 20:13:48.2080,-12.34,4.03,-16.67,-0.98,-0.19,1.11
2022-12-08 20:13:48.2180,-10.8,3.17,-13.53,-1.39,-0.41,1.07
2022-12-08 20:13:48.2280,-9.11,1.25,-13.09,-1.79,-0.22,1.28
2022-12-08 20:13:48.2380,-7.08,0.58,-11.92,-2.15,-0.03,1.71
2022-12-08 20:13:48.2480,-7.08,0.58,-11.92,-2.43,-0.24,2.12
2022-12-08 20:13:48.2580,-6.55,-0.56,-11.19,-2.25,-1.48,2.19
2022-12-08 20:13:48.2680,-6.14,-3.77,-4.28,-0.73,-5.53,0.8
2022-12-08 20:13:48.2780,13.85,-18.43,20.7,-0.76,-5.06,-1.08
2022-12-08 20:13:48.2880,13.85,-18.43,20.7,-1.66,0.66,-0.86
2022-12-08 20:13:48.2980,19.38,-5.25,-21.55,-2.13,2.04,1.01
2022-12-08 20:13:48.3080,-2.39,-1.27,5.32,-2.13,-0.73,3.27
2022-12-08 20:13:48.3180,-2.39,-1.27,5.32,-2.29,-2.09,4.77
2022-12-08 20:13:48.3280,-11.08,-3.84,0.51,-2.26,-1.69,4.48
2022-12-08 20:13:48.3370,-4.87,-5.77,-8.99,-2.13,-0.73,2.62
2022-12-08 20:13:48.3470,-4.87,-5.77,-8.99,-1.82,0.42,1.43
2022-12-08 20:13:48.3570,-3.37,-2.53,-5.92,-1.54,0.84,1.74
2022-12-08 20:13:48.3670,-1.89,3.37,-2.42,-1.34,0.84,1.84
2022-12-08 20:13:48.3770,-0.06,2.33,-2.94,-1.19,0.57,1.66
2022-12-08 20:13:48.3870,-0.23,-0.8,-3.05,-1.1,0.46,1.51
2022-12-08 20:13:48.3970,-3.08,-2.21,-2.4,-1.0,0.38,1.15
2022-12-08 20:13:48.4070,-5.15,-2.85,-1.73,-0.88,0.02,0.8
2022-12-08 20:13:48.4170,-4.75,-1.93,-1.51,-0.73,-0.39,0.63
2022-12-08 20:13:48.4270,-2.96,-0.59,-0.74,-0.62,-0.38,0.48
2022-12-08 20:13:48.4370,-1.08,-1.08,-1.63,-0.53,-0.16,0.31
2022-12-08 20:13:48.4470,-1.08,-1.08,-1.63,-0.46,-0.02,0.33
2022-12-08 20:13:48.4570,-0.44,-0.7,-1.09,-0.42,0.18,0.49
2022-12-08 20:13:48.4670,1.04,0.14,-0.54,-0.42,0.47,0.63
2022-12-08 20:13:48.4770,2.35,0.06,-0.72,-0.42,0.61,0.62
2022-12-08 20:13:48.4870,1.67,-0.53,-0.61,-0.41,0.56,0.58
2022-12-08 20:13:48.4960,-0.28,-0.61,-0.11,-0.39,0.41,0.49
2022-12-08 20:13:48.5070,-1.57,-0.53,0.43,-0.39,0.27,0.4
2022-12-08 20:13:48.5160,-1.79,-0.41,0.49,-0.39,0.16,0.36
2022-12-08 20:13:48.5270,-1.18,-0.09,0.36,-0.39,0.18,0.35
2022-12-08 20:13:48.5360,-0.36,0.12,0.14,-0.39,0.25,0.35
2022-12-08 20:13:48.5460,0.28,0.26,0.01,-0.39,0.31,0.37
2022-12-08 20:13:48.5560,0.48,0.26,-0.05,-0.39,0.37,0.38
2022-12-08 20:13:48.5660,0.27,0.13,-0.16,-0.4,0.36,0.4
2022-12-08 20:13:48.5760,0.11,0.1,-0.12,-0.42,0.3,0.4
2022-12-08 20:13:48.5860,-0.08,0.14,0.07,-0.45,0.22,0.39
2022-12-08 20:13:48.5960,-0.32,0.26,0.19,-0.46,0.17,0.36
2022-12-08 20:13:48.6060,-0.48,0.3,0.47,-0.48,0.2,0.36
2022-12-08 20:13:48.6160,-0.57,0.36,0.61,-0.51,0.24,0.37
2022-12-08 20:13:48.6260,-0.41,0.38,0.75,-0.54,0.31,0.4
2022-12-08 20:13:48.6360,-0.13,0.3,0.72,-0.58,0.38,0.44
2022-12-08 20:13:48.6460,0.09,0.29,0.54,-0.62,0.38,0.48
2022-12-08 20:13:48.6560,0.33,0.28,0.52,-0.67,0.32,0.52
2022-12-08 20:13:48.6660,0.57,0.32,0.55,-0.74,0.2,0.56
2022-12-08 20:13:48.6760,0.78,0.38,0.75,-0.8,0.14,0.61
2022-12-08 20:13:48.6860,1.03,0.33,0.85,-0.87,0.14,0.66
2022-12-08 20:13:48.6960,1.17,0.07,0.87,-0.95,0.14,0.72
2022-12-08 20:13:48.7060,1.31,-0.26,0.83,-1.04,0.17,0.8
2022-12-08 20:13:48.7160,1.34,-0.46,1.24,-1.13,0.22,0.89
2022-12-08 20:13:48.7260,1.34,-0.46,1.24,-1.23,0.23,0.96
2022-12-08 20:13:48.7350,1.32,-0.68,1.55,-1.36,0.19,1.02
2022-12-08 20:13:48.7460,1.36,-1.01,1.75,-1.51,0.13,1.07
2022-12-08 20:13:48.7560,1.59,-1.41,1.95,-1.65,0.07,1.15
2022-12-08 20:13:48.7660,1.88,-1.74,2.13,-1.78,0.02,1.22
2022-12-08 20:13:48.7750,1.95,-2.05,2.06,-1.89,0.01,1.29
2022-12-08 20:13:48.7850,1.8,-2.35,1.94,-2.01,-0.02,1.36
2022-12-08 20:13:48.7950,1.73,-2.78,2.14,-2.14,0.04,1.44
2022-12-08 20:13:48.8050,1.95,-3.29,2.7,-2.26,0.21,1.53
2022-12-08 20:13:48.8150,2.27,-3.77,3.52,-2.39,0.48,1.62
2022-12-08 20:13:48.8250,2.48,-4.33,4.35,-2.5,0.79,1.72
2022-12-08 20:13:48.8350,3.01,-6.07,5.36,-2.62,1.11,1.79
2022-12-08 20:13:48.8450,3.01,-6.07,5.36,-2.76,1.31,1.76
2022-12-08 20:13:48.8550,3.49,-7.77,5.93,-2.87,1.52,1.64
2022-12-08 20:13:48.8650,3.98,-10.44,6.63,-3.02,1.95,1.44
2022-12-08 20:13:48.8760,5.03,-13.33,6.75,-3.19,2.69,1.13
2022-12-08 20:13:48.8860,7.58,-15.04,6.62,-3.38,3.63,0.77
2022-12-08 20:13:48.8950,10.96,-15.01,6.35,-3.61,4.42,0.72
2022-12-08 20:13:48.9050,13.41,-12.56,5.11,-3.73,4.56,1.2
2022-12-08 20:13:48.9150,11.86,-8.66,4.52,-3.64,3.67,1.75
2022-12-08 20:13:48.9250,4.57,-6.93,7.12,-3.38,2.52,2.05
2022-12-08 20:13:48.9340,-5.76,-8.76,7.81,-3.08,1.55,1.78
2022-12-08 20:13:48.9440,-5.76,-8.76,7.81,-2.67,0.96,0.88
2022-12-08 20:13:48.9540,-6.17,-9.27,6.68,-2.2,0.18,0.07
2022-12-08 20:13:48.9640,-5.63,-8.22,8.44,-1.74,-0.57,-0.17
2022-12-08 20:13:48.9740,-5.14,-5.22,9.52,-1.31,-1.14,-0.26
2022-12-08 20:13:48.9840,-4.02,-3.69,8.7,-0.86,-1.29,-0.51
2022-12-08 20:13:48.9940,-1.86,-3.09,7.68,-0.45,-0.92,-0.52
2022-12-08 20:13:49.0040,0.75,-2.02,7.38,-0.2,-0.29,-0.15
2022-12-08 20:13:49.0140,-0.6,0.39,5.28,0.22,-0.71,-0.28
2022-12-08 20:13:49.0240,0.25,0.17,7.23,0.69,-1.01,-0.67
2022-12-08 20:13:49.0340,3.5,-0.11,9.51,1.14,-0.96,-0.96
2022-12-08 20:13:49.0440,5.51,0.89,8.86,1.53,-0.62,-1.06
2022-12-08 20:13:49.0540,5.26,2.03,5.99,1.87,-0.21,-1.21
2022-12-08 20:13:49.0640,5.26,2.03,5.99,2.22,-0.05,-1.47
2022-12-08 20:13:49.0740,4.33,1.68,5.61,2.57,-0.16,-1.63
2022-12-08 20:13:49.0840,3.6,2.18,5.43,2.91,-0.41,-1.71
2022-12-08 20:13:49.0940,3.34,2.26,5.39,3.21,-0.51,-1.81
2022-12-08 20:13:49.1040,3.42,1.6,4.95,3.45,-0.4,-1.95
2022-12-08 20:13:49.1140,3.31,1.11,4.35,3.7,-0.26,-2.07
2022-12-08 20:13:49.1240,2.8,0.98,4.05,3.96,-0.17,-2.19
2022-12-08 20:13:49.1330,0.84,0.32,3.77,4.23,-0.13,-2.29
2022-12-08 20:13:49.1430,0.84,0.32,3.77,4.49,-0.13,-2.37
2022-12-08 20:13:49.1530,0.23,-0.07,3.28,4.73,-0.11,-2.44
2022-12-08 20:13:49.1630,-0.02,-0.38,2.8,4.97,-0.03,-2.55
2022-12-08 20:13:49.1730,0.13,-0.79,1.89,5.19,0.07,-2.68
2022-12-08 20:13:49.1830,0.29,-1.16,0.63,5.39,0.14,-2.81
2022-12-08 20:13:49.1940,0.24,-1.56,-0.72,5.56,0.2,-2.92
2022-12-08 20:13:49.2030,0.23,-2.24,-1.95,5.68,0.16,-2.98
2022-12-08 20:13:49.2130,0.1,-3.97,-4.0,5.73,0.1,-2.99
2022-12-08 20:13:49.2230,0.1,-3.97,-4.0,5.73,0.0,-3.02
2022-12-08 20:13:49.2330,-0.57,-5.13,-5.19,5.69,-0.02,-3.04
2022-12-08 20:13:49.2430,-3.82,-7.02,-7.18,5.61,-0.17,-3.04
2022-12-08 20:13:49.2530,-3.82,-7.02,-7.18,5.5,-0.41,-3.08
2022-12-08 20:13:49.2630,-5.2,-8.28,-7.91,5.28,-0.54,-3.12
2022-12-08 20:13:49.2730,-6.33,-9.26,-9.46,4.96,-0.59,-3.02
2022-12-08 20:13:49.2830,-7.49,-9.5,-10.86,4.53,-0.73,-2.78
2022-12-08 20:13:49.2930,-8.43,-9.08,-11.47,3.98,-0.88,-2.39
2022-12-08 20:13:49.3030,-10.11,-6.76,-12.78,3.38,-0.96,-1.97
2022-12-08 20:13:49.3130,-10.11,-6.76,-12.78,2.79,-0.87,-1.56
2022-12-08 20:13:49.3230,-10.56,-4.57,-13.53,2.15,-0.51,-1.1
2022-12-08 20:13:49.3330,-10.03,-0.42,-15.21,1.43,-0.1,-0.61
2022-12-08 20:13:49.3420,-10.03,-0.42,-15.21,0.64,0.17,-0.12
2022-12-08 20:13:49.3520,-9.45,0.65,-15.37,-0.12,0.22,0.39
2022-12-08 20:13:49.3620,-9.07,1.49,-14.96,-0.75,0.06,0.84
2022-12-08 20:13:49.3720,-9.52,1.85,-12.98,-1.26,-0.09,1.18
2022-12-08 20:13:49.3820,-9.52,1.85,-12.98,-1.67,-0.29,1.39
2022-12-08 20:13:49.3920,-9.66,1.15,-12.09,-2.03,-0.46,1.61
2022-12-08 20:13:49.4020,-9.4,0.35,-11.17,-2.37,-0.78,1.85
2022-12-08 20:13:49.4120,-8.79,-0.55,-10.48,-2.2,-1.63,1.88
2022-12-08 20:13:49.4220,-6.96,-2.89,-4.92,-1.05,-4.38,0.95
2022-12-08 20:13:49.4320,10.16,-14.14,23.16,-0.59,-4.92,-0.79
2022-12-08 20:13:49.4420,10.16,-14.14,23.16,-1.31,0.09,-0.29
2022-12-08 20:13:49.4520,20.25,-4.81,-9.37,-2.02,3.13,0.72
2022-12-08 20:13:49.4620,14.03,-0.03,-21.34,-1.95,1.14,2.23
2022-12-08 20:13:49.4720,3.53,-2.29,-3.71,-1.88,-1.06,3.61
2022-12-08 20:13:49.4820,-6.95,-3.66,3.42,-1.89,-0.59,3.63
2022-12-08 20:13:49.4920,-9.88,-2.74,-4.53,-1.74,0.53,2.36
2022-12-08 20:13:49.5020,-6.7,-3.16,-7.37,-1.56,0.61,1.98
2022-12-08 20:13:49.5110,-6.76,0.34,-4.78,-1.26,-0.38,1.81
2022-12-08 20:13:49.5220,-5.36,-0.13,0.3,-1.15,-0.28,1.56
2022-12-08 20:13:49.5310,-2.45,-1.24,-0.64,-1.14,0.09,1.31
2022-12-08 20:13:49.5420,-2.24,-0.72,-3.65,-1.04,-0.23,1.17
2022-12-08 20:13:49.5520,-3.57,-1.08,-1.33,-0.97,-0.35,1.05
2022-12-08 20:13:49.5620,-4.18,-0.89,-1.15,-0.91,-0.26,0.93
2022-12-08 20:13:49.5710,0.03,-0.38,-0.91,-0.84,-0.11,0.88
2022-12-08 20:13:49.5810,0.03,-0.38,-0.91,-0.78,0.11,0.84
2022-12-08 20:13:49.5910,0.86,-0.35,-1.4,-0.72,0.22,0.78
2022-12-08 20:13:49.6010,-0.28,-0.63,-1.48,-0.65,0.12,0.67
2022-12-08 20:13:49.6110,-1.63,-1.04,-1.01,-0.55,0.01,0.51
2022-12-08 20:13:49.6210,-2.26,-1.33,-0.88,-0.48,-0.03,0.39
2022-12-08 20:13:49.6310,-0.24,-0.77,-0.7,-0.42,0.06,0.37
2022-12-08 20:13:49.6410,-0.24,-0.77,-0.7,-0.4,0.3,0.39
2022-12-08 20:13:49.6510,1.06,-0.64,-0.6,-0.4,0.51,0.42
2022-12-08 20:13:49.6610,1.31,-0.74,-0.46,-0.4,0.58,0.43
2022-12-08 20:13:49.6710,0.53,-0.72,-0.31,-0.38,0.56,0.39
2022-12-08 20:13:49.6810,-0.46,-0.68,-0.18,-0.36,0.52,0.33
2022-12-08 20:13:49.6910,-0.97,-0.65,-0.22,-0.34,0.47,0.27
2022-12-08 20:13:49.7010,-0.8,-0.45,-0.23,-0.32,0.45,0.25
2022-12-08 20:13:49.7110,-0.28,-0.2,-0.22,-0.31,0.48,0.26
2022-12-08 20:13:49.7210,0.22,-0.08,-0.19,-0.32,0.51,0.28
2022-12-08 20:13:49.7310,0.44,-0.01,-0.06,-0.33,0.53,0.3
2022-12-08 20:13:49.7400,0.31,0.06,0.09,-0.35,0.51,0.3
2022-12-08 20:13:49.7500,-0.02,0.16,0.21,-0.37,0.46,0.31
2022-12-08 20:13:49.7600,-0.39,0.3,0.34,-0.39,0.4,0.29
2022-12-08 20:13:49.7700,-0.65,0.46,0.45,-0.39,0.34,0.28
2022-12-08 20:13:49.7800,-0.76,0.57,0.6,-0.4,0.29,0.28
2022-12-08 20:13:49.7900,-0.71,0.58,0.55,-0.43,0.27,0.28
2022-12-08 20:13:49.8000,-0.53,0.55,0.41,-0.46,0.26,0.3
2022-12-08 20:13:49.8100,-0.28,0.63,0.17,-0.49,0.25,0.34
2022-12-08 20:13:49.8200,0.01,0.84,0.11,-0.52,0.25,0.4
2022-12-08 20:13:49.8300,0.16,1.4031510776281357,0.56,-0.56,0.24,0.46
2022-12-08 20:13:49.8400,0.23,1.4,0.56,-0.61,0.25,0.53
2022-12-08 20:13:49.8500,0.28,1.43,0.9,-0.65,0.24,0.58
2022-12-08 20:13:49.8600,0.34,1.27,1.23,-0.71,0.23,0.61
2022-12-08 20:13:49.8700,0.26,0.75,1.26,-0.78,0.22,0.63
2022-12-08 20:13:49.8800,0.15,0.24,1.11,-0.87,0.2,0.69
2022-12-08 20:13:49.8900,0.32,-0.06,1.23,-0.98,0.2,0.75
2022-12-08 20:13:49.9000,0.76,-0.33,1.41,-1.11,0.23,0.84
2022-12-08 20:13:49.9100,1.2,-0.47,1.77,-1.24,0.26,0.92
2022-12-08 20:13:49.9200,1.54,-0.5,2.15,-1.4,0.28,1.0
2022-12-08 20:13:49.9290,1.52,-0.77,2.55,-1.55,0.2,1.1
2022-12-08 20:13:49.9400,1.52,-0.77,2.55,-1.68,0.07,1.16
2022-12-08 20:13:49.9490,1.54,-1.17,2.39,-1.8,-0.0,1.2
2022-12-08 20:13:49.9590,1.31,-1.85,2.12,-1.92,-0.01,1.25
2022-12-08 20:13:49.9690,1.3,-2.46,2.05,-2.05,0.11,1.31
2022-12-08 20:13:49.9790,1.66,-3.19,2.16,-2.2,0.34,1.4
2022-12-08 20:13:49.9890,2.96,-4.58,3.43,-2.36,0.67,1.52
2022-12-08 20:13:49.9990,2.96,-4.58,3.43,-2.54,0.96,1.63
2022-12-08 20:13:50.0090,3.42,-5.2,3.89,-2.71,1.18,1.7
2022-12-08 20:13:50.0190,3.69,-5.81,4.39,-2.86,1.35,1.72
2022-12-08 20:13:50.0290,4.22,-6.9,4.73,-3.05,1.4,1.65
2022-12-08 20:13:50.0390,5.28,-8.82,5.31,-3.2,1.43,1.51
2022-12-08 20:13:50.0490,7.52,-14.22,7.01,-3.38,1.71,1.28
2022-12-08 20:13:50.0600,9.79,-15.85,7.35,-3.54,2.28,0.95
2022-12-08 20:13:50.0700,12.33,-15.24,8.7,-3.67,2.85,0.71
2022-12-08 20:13:50.0790,12.33,-15.24,8.7,-3.78,3.1,0.92
2022-12-08 20:13:50.0890,7.44,-7.5,5.38,-3.83,2.89,1.47
2022-12-08 20:13:50.0990,7.44,-7.5,5.38,-3.68,2.0,2.03
2022-12-08 20:13:50.1090,-0.98,-7.17,5.82,-3.45,1.04,2.0
2022-12-08 20:13:50.1190,-7.22,-12.58,7.62,-3.09,0.5,1.17
2022-12-08 20:13:50.1290,-7.22,-12.58,7.62,-2.66,-0.08,0.19
2022-12-08 20:13:50.1380,-5.44,-11.76,9.77,-2.18,-0.65,-0.09
2022-12-08 20:13:50.1480,-3.54,-7.26,11.57,-1.7,-1.24,-0.23
2022-12-08 20:13:50.1590,-1.9,-4.47,11.87,-1.3,-1.28,-0.48
2022-12-08 20:13:50.1680,-0.16,-2.28,5.86,-0.9,-0.96,-0.88
2022-12-08 20:13:50.1780,-0.16,-2.28,5.86,-0.59,-0.3,-0.89
2022-12-08 20:13:50.1880,-2.97,0.18,5.34,-0.33,-0.12,-0.62
2022-12-08 20:13:50.1980,-2.97,0.18,5.34,0.09,-1.02,-0.64
2022-12-08 20:13:50.2130,1.43,0.48,9.97,0.55,-1.62,-0.96
2022-12-08 20:13:50.2180,4.09,0.88,8.5,0.95,-1.55,-1.4
2022-12-08 20:13:50.2280,4.09,0.88,8.5,1.3,-1.08,-1.7
2022-12-08 20:13:50.2380,5.46,1.91,7.1,1.6,-0.57,-1.84
2022-12-08 20:13:50.2480,5.88,2.76,5.94,1.9,-0.15,-2.06
2022-12-08 20:13:50.2580,4.96,2.6,5.27,2.22,-0.05,-2.26
2022-12-08 20:13:50.2680,3.14,2.51,5.24,2.56,-0.38,-2.32
2022-12-08 20:13:50.2780,1.97,2.66,5.96,2.88,-0.74,-2.4
2022-12-08 20:13:50.2880,1.57,2.05,6.14,3.16,-0.87,-2.59
2022-12-08 20:13:50.2980,1.62,1.04,5.46,3.39,-0.81,-2.79
2022-12-08 20:13:50.3080,1.71,0.58,5.05,3.62,-0.73,-2.92
2022-12-08 20:13:50.3180,1.35,0.67,5.11,3.89,-0.71,-3.07
2022-12-08 20:13:50.3280,-0.11,0.28,4.47,4.18,-0.64,-3.25
2022-12-08 20:13:50.3380,-0.11,0.28,4.47,4.43,-0.47,-3.38
2022-12-08 20:13:50.3480,-0.99,-0.49,3.61,4.66,-0.37,-3.46
2022-12-08 20:13:50.3570,-1.72,-1.26,2.65,4.89,-0.41,-3.48
2022-12-08 20:13:50.3670,-2.37,-1.69,1.94,5.1,-0.48,-3.46
2022-12-08 20:13:50.3770,-3.11,-1.86,0.94,5.31,-0.54,-3.45
2022-12-08 20:13:50.3870,-3.23,-2.77,-1.25,5.5,-0.59,-3.46
2022-12-08 20:13:50.3970,-3.23,-2.77,-1.25,5.65,-0.53,-3.46
2022-12-08 20:13:50.4070,-3.15,-3.76,-2.6,5.74,-0.44,-3.45
2022-12-08 20:13:50.4170,-3.39,-5.15,-3.76,5.78,-0.31,-3.38
2022-12-08 20:13:50.4270,-5.22,-7.61,-6.15,5.77,-0.1,-3.26
2022-12-08 20:13:50.4370,-5.22,-7.61,-6.975472165346146,5.75,-0.05,-3.11
2022-12-08 20:13:50.4470,-8.4,-9.57,-7.69,5.65,-0.11,-2.91
2022-12-08 20:13:50.4570,-9.7,-10.33,-8.97,5.43,-0.28,-2.66
2022-12-08 20:13:50.4680,-10.29,-10.39,-10.39,5.05,-0.5,-2.37
2022-12-08 20:13:50.4770,-10.62,-9.86,-11.96,4.49,-0.6,-2.1
2022-12-08 20:13:50.4870,-10.62,-8.13,-13.12,3.78,-0.65,-1.78
2022-12-08 20:13:50.4970,-10.92,-8.13,-13.12,3.04,-0.67,-1.36
2022-12-08 20:13:50.5070,-11.32,-5.13,-13.9,2.33,-0.57,-0.89
2022-12-08 20:13:50.5160,-11.68,-2.22,-14.7,1.47,-0.32,-0.47
2022-12-08 20:13:50.5260,-11.75,1.89,-16.51,0.45,0.08,0.1
2022-12-08 20:13:50.5360,-11.67,3.76,-15.54,-0.41,0.09,0.91
2022-12-08 20:13:50.5460,-11.67,3.76,-15.54,-1.04,-0.19,1.46
2022-12-08 20:13:50.5560,-12.19,3.13,-13.47,-1.5,-0.25,1.62
2022-12-08 20:13:50.5660,-12.27,1.09,-12.39,-1.9,-0.19,1.81
2022-12-08 20:13:50.5760,-10.82,0.17,-11.4,-2.25,-0.3,2.13
2022-12-08 20:13:50.5860,-9.32,-0.2,-11.42,-2.21,-0.93,2.04
2022-12-08 20:13:50.5960,-7.58,-2.95,-6.84,-0.77,-4.46,0.28
2022-12-08 20:13:50.6060,0.58,-11.74,16.35,-0.6,-4.51,-1.54
2022-12-08 20:13:50.6170,18.95,-19.14,17.49,-1.65,1.25,-1.26
2022-12-08 20:13:50.6260,22.25,-7.89,-21.7,-2.17,3.19,0.96
2022-12-08 20:13:50.6360,12.39,-0.62,-15.81,-2.44,0.74,3.26
2022-12-08 20:13:50.6460,-0.28,-2.63,0.71,-2.29,-1.87,4.66
2022-12-08 20:13:50.6560,-9.86,-4.72,0.67,-2.02,-2.39,4.48
2022-12-08 20:13:50.6660,-9.23,-4.56,-7.12,-1.84,-1.66,3.23
2022-12-08 20:13:50.6760,-8.08,0.08,-5.99,-1.51,-0.2,1.98
2022-12-08 20:13:50.6860,-7.88,1.59,-1.81,-1.07,0.07,1.13
2022-12-08 20:13:50.6960,-7.88,1.59,-1.81,-0.82,-0.06,1.07
2022-12-08 20:13:50.7060,-4.97,2.44,-1.39,-0.73,-0.17,1.14
2022-12-08 20:13:50.7160,-2.22,-0.18,-1.84,-0.73,-0.06,1.08
2022-12-08 20:13:50.7260,-0.06,-2.96,-2.43,-0.73,0.22,0.94
2022-12-08 20:13:50.7360,0.41,-3.18,-1.89,-0.69,0.4,0.84
2022-12-08 20:13:50.7450,-0.35,-1.57,-1.67,-0.58,0.25,0.79
2022-12-08 20:13:50.7560,-0.91,-0.26,-1.37,-0.47,0.11,0.69
2022-12-08 20:13:50.7660,-1.09,-0.31,-1.09,-0.4,0.03,0.52
2022-12-08 20:13:50.7760,-1.45,-1.29,-1.04,-0.35,-0.1,0.38
2022-12-08 20:13:50.7850,-1.55,-1.51,-0.42,-0.32,-0.1,0.36
2022-12-08 20:13:50.7950,-0.89,-0.58,0.07,-0.31,0.17,0.39
2022-12-08 20:13:50.8050,0.3,0.27,0.5,-0.33,0.56,0.48
2022-12-08 20:13:50.8150,1.24,0.4,0.74,-0.35,0.82,0.53
2022-12-08 20:13:50.8250,0.09,-0.17,0.36,-0.37,0.82,0.55
2022-12-08 20:13:50.8350,0.09,-0.17,0.36,-0.38,0.71,0.55
2022-12-08 20:13:50.8450,-0.49,-0.08,0.55,-0.39,0.62,0.51
2022-12-08 20:13:50.8550,-0.7,-0.17,0.6,-0.42,0.52,0.46
2022-12-08 20:13:50.8650,-0.64,-0.26,0.47,-0.44,0.41,0.45
2022-12-08 20:13:50.8750,-0.41,-0.04,0.53,-0.48,0.42,0.46
2022-12-08 20:13:50.8850,-0.06,0.22,0.34,-0.51,0.46,0.49
2022-12-08 20:13:50.8950,0.41,0.33,0.31,-0.55,0.46,0.52
2022-12-08 20:13:50.9050,0.57,0.27,0.65,-0.58,0.49,0.55
2022-12-08 20:13:50.9150,0.32,0.17,0.74,-0.63,0.49,0.56
2022-12-08 20:13:50.9250,-0.05,0.17,0.72,-0.66,0.47,0.56
2022-12-08 20:13:50.9340,-0.37,0.28,0.76,-0.7,0.44,0.57
2022-12-08 20:13:50.9450,-0.44,0.48,0.7,-0.75,0.42,0.6
2022-12-08 20:13:50.9540,-0.15,0.65,0.65,-0.8,0.38,0.65
2022-12-08 20:13:50.9640,0.28,0.79,0.91,-0.85,0.35,0.69
2022-12-08 20:13:50.9740,0.48,0.77,0.99,-0.88,0.31,0.71
2022-12-08 20:13:50.9840,0.3,0.56,0.88,-0.89,0.19,0.75
2022-12-08 20:13:50.9940,0.04,0.35,0.92,-0.91,0.08,0.79
2022-12-08 20:13:51.0040,-0.05,0.08,0.78,-0.94,0.07,0.78
2022-12-08 20:13:51.0140,0.12,-0.17,0.22,-0.98,0.12,0.78
2022-12-08 20:13:51.0240,1.05,-0.28,0.43,-1.01,0.17,0.83
2022-12-08 20:13:51.0340,1.05,-0.28,0.43,-1.08,0.25,0.87
2022-12-08 20:13:51.0440,1.32,-0.68,0.56,-1.15,0.26,0.91
2022-12-08 20:13:51.0540,0.86,-0.83,1.43,-1.23,0.19,0.97
2022-12-08 20:13:51.0640,0.7,-0.91,1.45,-1.32,0.19,0.99
2022-12-08 20:13:51.0740,0.7,-0.91,1.45,-1.43,0.2,1.01
2022-12-08 20:13:51.0840,1.07,-1.06,1.36,-1.54,0.16,1.09
2022-12-08 20:13:51.0940,1.76,-1.18,1.86,-1.67,0.16,1.15
2022-12-08 20:13:51.1040,2.08,-1.84,2.08,-1.8,0.2,1.2
2022-12-08 20:13:51.1140,1.91,-2.8,1.99,-1.95,0.19,1.28
2022-12-08 20:13:51.1240,2.35,-3.13,2.63,-2.12,0.18,1.37
2022-12-08 20:13:51.1340,2.35,-3.13,2.63,-2.31,0.24,1.46
2022-12-08 20:13:51.1430,3.07,-3.22,3.42,-2.49,0.39,1.59
2022-12-08 20:13:51.1530,4.23,-4.81,5.44,-2.67,0.66,1.72
2022-12-08 20:13:51.1640,4.59,-6.45,5.98,-2.86,0.96,1.83
2022-12-08 20:13:51.1730,5.32,-8.3,6.33,-3.03,1.23,1.89
2022-12-08 20:13:51.1830,6.57,-10.65,7.01,-3.18,1.42,1.77
2022-12-08 20:13:51.1930,6.57,-13.736968982219697,7.09,-3.32,1.76,1.48
2022-12-08 20:13:51.2040,9.54,-16.39,6.73,-3.52,2.38,1.14
2022-12-08 20:13:51.2140,11.32,-15.1,7.03,-3.7,2.87,1.08
2022-12-08 20:13:51.2230,11.32,-15.1,7.03,-3.78,2.99,1.43
2022-12-08 20:13:51.2330,10.17,-10.68,6.41,-3.75,2.41,1.85
2022-12-08 20:13:51.2430,4.25,-8.47,6.74,-3.52,1.62,2.05
2022-12-08 20:13:51.2530,-1.93,-9.3,8.97,-3.23,1.12,1.68
2022-12-08 20:13:51.2630,-5.29,-10.79,8.68,-2.85,0.81,0.91
2022-12-08 20:13:51.2730,-5.09,-11.14,7.39,-2.42,0.19,0.46
2022-12-08 20:13:51.2830,-3.36,-8.76,9.24,-1.93,-0.49,0.33
2022-12-08 20:13:51.2930,-1.95,-5.71,10.89,-1.47,-0.87,0.14
2022-12-08 20:13:51.3030,-1.25,-4.2,10.8,-1.09,-0.68,-0.19
2022-12-08 20:13:51.3130,2.0690024676918983,-2.07,5.3,-0.69,-0.24,-0.62
2022-12-08 20:13:51.3230,0.68,-0.53,5.03,-0.42,0.39,-0.46
2022-12-08 20:13:51.3330,0.68,-0.53,5.03,-0.13,0.28,-0.22
2022-12-08 20:13:51.3430,-3.03,0.43,5.22,0.37,-0.73,-0.3
2022-12-08 20:13:51.3520,-1.65,0.55,9.32,0.88,-1.22,-0.66
2022-12-08 20:13:51.3620,2.47,0.92,9.9,1.31,-1.05,-1.04
2022-12-08 20:13:51.3730,4.85,1.42,8.25,1.65,-0.57,-1.26
2022-12-08 20:13:51.3820,5.76,2.12,6.74,1.95,-0.12,-1.47
2022-12-08 20:13:51.3920,5.43,2.31,5.73,2.27,0.1,-1.74
2022-12-08 20:13:51.4020,2.65,2.78,5.58,2.6,-0.06,-1.9
2022-12-08 20:13:51.4120,2.65,2.78,5.58,2.94,-0.4,-2.01
2022-12-08 20:13:51.4220,1.95,1.86,5.59,3.24,-0.59,-2.18
2022-12-08 20:13:51.4320,1.95,1.86,5.59,3.49,-0.61,-2.41
2022-12-08 20:13:51.4420,2.3,1.14,5.09,3.73,-0.48,-2.62
2022-12-08 20:13:51.4520,2.6,0.74,4.55,3.95,-0.29,-2.72
2022-12-08 20:13:51.4620,2.34,0.8763760042190553,4.09,4.19,-0.2,-2.76
2022-12-08 20:13:51.4720,1.63,0.87,4.09,4.47,-0.2,-2.88
2022-12-08 20:13:51.4820,0.91,0.16,3.69,4.71,-0.04,-3.06
2022-12-08 20:13:51.4920,0.03,-0.97,2.55,4.91,0.2,-3.17
2022-12-08 20:13:51.5020,-0.62,-1.92,1.24,5.06,0.3,-3.17
2022-12-08 20:13:51.5120,-0.74,-2.33,0.41,5.22,0.38,-3.12
2022-12-08 20:13:51.5220,-0.76,-3.05,-1.18,5.37,0.38,-3.02
2022-12-08 20:13:51.5310,-0.76,-3.05,-1.18,5.51,0.28,-2.88
2022-12-08 20:13:51.5420,-1.0,-3.46,-1.59,5.63,0.12,-2.83
2022-12-08 20:13:51.5520,-1.48,-6.31,-4.15,5.66,0.03,-2.84
2022-12-08 20:13:51.5610,-1.48,-6.31,-4.15,5.59,-0.04,-2.81
2022-12-08 20:13:51.5710,-2.67,-7.57,-6.1,5.47,-0.24,-2.73
2022-12-08 20:13:51.5810,-4.31,-8.18,-7.01,5.35,-0.58,-2.67
2022-12-08 20:13:51.5910,-4.99,-8.12,-7.29,5.17,-0.77,-2.66
2022-12-08 20:13:51.6010,-4.95,-7.63,-8.56,4.9,-0.83,-2.68
2022-12-08 20:13:51.6110,-4.94,-7.3,-10.55,4.54,-0.86,-2.6
2022-12-08 20:13:51.6210,-6.49,-7.11,-12.25,4.06,-0.91,-2.35
2022-12-08 20:13:51.6310,-6.49,-7.11,-12.25,3.47,-0.96,-1.97
2022-12-08 20:13:51.6410,-7.54,-6.76,-12.68,2.82,-0.87,-1.5
2022-12-08 20:13:51.6510,-8.86,-5.31,-13.49,2.16,-0.65,-1.0
2022-12-08 20:13:51.6610,-10.18,-3.03,-14.21,1.48,-0.42,-0.59
2022-12-08 20:13:51.6710,-10.6,-1.0,-14.65,0.72,-0.19,-0.27
2022-12-08 20:13:51.6810,-10.44,0.5,-14.93,-0.01,0.01,0.12
2022-12-08 20:13:51.6910,-10.03,1.71,-14.97,-0.66,0.09,0.55
2022-12-08 20:13:51.7010,-9.47,1.81,-14.47,-1.2,0.25,0.92
2022-12-08 20:13:51.7110,-9.52,1.12,-13.72,-1.63,0.44,1.23
2022-12-08 20:13:51.7210,-9.41,0.5,-12.2,-2.06,0.57,1.58
2022-12-08 20:13:51.7310,-8.8,0.15,-11.63,-2.35,0.6,1.84
2022-12-08 20:13:51.7410,-9.25,-1.15,-11.72,-1.35,-1.96,1.7
2022-12-08 20:13:51.7510,-8.23,-6.53,8.02,-0.91,-3.48,-0.24
2022-12-08 20:13:51.7610,4.9,-18.23,26.06,-2.08,0.36,0.06
2022-12-08 20:13:51.7710,18.01,-15.51,-8.08,-3.02,2.59,2.15
2022-12-08 20:13:51.7800,-1.13,-3.39,0.81,-3.07,-0.02,3.61
2022-12-08 20:13:51.7900,-7.65,-1.49,3.96,-2.59,-2.53,4.03
2022-12-08 20:13:51.8000,-5.81,1.32,-4.8,-2.13,-2.2,2.91
2022-12-08 20:13:51.8100,-5.81,1.32,-4.8,-1.75,-0.11,1.87
2022-12-08 20:13:51.8200,-4.61,4.99,-7.75,-1.6,0.89,2.16
2022-12-08 20:13:51.8300,-8.86,5.68,-6.62,-1.28,-0.39,1.89
2022-12-08 20:13:51.8400,-9.5,-2.36,-1.52,-1.17,-0.78,1.33
2022-12-08 20:13:51.8500,-4.55,-5.69,-0.71,-1.24,-0.3,1.25
2022-12-08 20:13:51.8600,-0.94,-3.16,-4.26,-1.25,-0.13,1.16
2022-12-08 20:13:51.8700,1.46,-3.13,-2.1,-1.23,0.14,1.19
2022-12-08 20:13:51.8800,0.8,-1.22,-2.04,-1.1,0.1,1.12
2022-12-08 20:13:51.8900,-1.69,0.37,-0.98,-0.97,0.27,0.94
2022-12-08 20:13:51.9000,-2.61,0.1,-1.17,-0.85,0.27,0.75
2022-12-08 20:13:51.9100,-1.87,-0.74,-1.18,-0.77,0.24,0.67
2022-12-08 20:13:51.9200,-0.39,-1.59,-1.54,-0.72,0.19,0.63
2022-12-08 20:13:51.9300,-0.39,-1.59,-1.54,-0.66,0.12,0.52
2022-12-08 20:13:51.9400,-1.12,-1.54,-1.62,-0.56,0.1,0.39
2022-12-08 20:13:51.9500,-1.71,-0.93,-1.15,-0.45,0.18,0.38
2022-12-08 20:13:51.9590,-0.9,-0.17,-0.58,-0.4,0.43,0.43
2022-12-08 20:13:51.9690,0.92,-0.15,-0.57,-0.39,0.67,0.46
2022-12-08 20:13:51.9790,1.78,-0.62,-0.94,-0.37,0.74,0.48
2022-12-08 20:13:51.9890,0.94,-0.75,-0.82,-0.34,0.76,0.47
2022-12-08 20:13:51.9990,-0.35,-0.6,-0.6,-0.3,0.75,0.42
2022-12-08 20:13:52.0090,-0.88,-0.45,-0.32,-0.26,0.72,0.39
2022-12-08 20:13:52.0190,-0.26,-0.26,-0.07,-0.23,0.7,0.35
2022-12-08 20:13:52.0290,-0.26,-0.26,-0.07,-0.23,0.7,0.34
2022-12-08 20:13:52.0390,0.07,-0.21,-0.11,-0.25,0.67,0.34
2022-12-08 20:13:52.0490,0.23,-0.11,0.1,-0.27,0.65,0.34
2022-12-08 20:13:52.0590,0.08,-0.06,0.34,-0.29,0.66,0.32
2022-12-08 20:13:52.0690,-0.36,0.0,0.41,-0.32,0.67,0.3
2022-12-08 20:13:52.0790,-0.7,0.17,0.61,-0.35,0.66,0.3
2022-12-08 20:13:52.0890,-0.53,0.68,1.03,-0.38,0.67,0.32
2022-12-08 20:13:52.0990,-0.53,0.68,1.03,-0.43,0.65,0.33
2022-12-08 20:13:52.1090,-0.43,0.79,1.09,-0.48,0.62,0.36
2022-12-08 20:13:52.1190,-0.63,0.79,1.16,-0.53,0.59,0.38
2022-12-08 20:13:52.1290,-0.63,0.79,1.16,-0.57,0.54,0.41
2022-12-08 20:13:52.1390,-0.45,0.79,1.13,-0.62,0.48,0.44
2022-12-08 20:13:52.1490,-0.14,0.81,0.99,-0.66,0.41,0.48
2022-12-08 20:13:52.1590,0.16,0.87,0.89,-0.71,0.34,0.53
2022-12-08 20:13:52.1680,0.56,0.59,0.84,-0.77,0.28,0.57
2022-12-08 20:13:52.1780,0.56,0.59,0.84,-0.84,0.21,0.62
2022-12-08 20:13:52.1880,0.69,0.27,0.98,-0.91,0.14,0.66
2022-12-08 20:13:52.1980,0.81,-0.08,1.22,-0.99,0.12,0.7
2022-12-08 20:13:52.2080,0.73,-0.49,1.28,-1.1,0.14,0.77
2022-12-08 20:13:52.2180,1.45,-0.52,1.44,-1.22,0.16,0.83
2022-12-08 20:13:52.2280,1.75,-0.43,1.61,-1.36,0.17,0.91
2022-12-08 20:13:52.2380,1.75,-0.43,1.61,-1.49,0.11,0.98
2022-12-08 20:13:52.2480,1.59,-0.65,1.91,-1.61,0.06,1.04
2022-12-08 20:13:52.2580,1.3,-1.21,2.24,-1.74,0.02,1.09
2022-12-08 20:13:52.2680,1.26,-1.96,2.2,-1.88,-0.03,1.17
2022-12-08 20:13:52.2780,1.48,-2.31,2.15,-2.02,-0.04,1.26
2022-12-08 20:13:52.2880,1.81,-2.695833633542061,2.92,-2.16,0.04,1.35
2022-12-08 20:13:52.2980,2.19,-2.7,2.92,-2.32,0.18,1.45
2022-12-08 20:13:52.3080,2.5,-3.53,3.61,-2.51,0.4,1.56
2022-12-08 20:13:52.3180,3.29,-5.29,4.9,-2.73,0.69,1.67
2022-12-08 20:13:52.3280,3.29,-5.29,4.9,-2.93,1.0,1.78
2022-12-08 20:13:52.3370,3.92,-5.77,5.4,-3.09,1.35,1.87
2022-12-08 20:13:52.3480,4.74,-6.58,5.35,-3.24,1.58,1.85
2022-12-08 20:13:52.3580,5.54,-8.28,5.68,-3.35,1.74,1.73
2022-12-08 20:13:52.3670,6.05,-10.93,6.26,-3.47,1.98,1.54
2022-12-08 20:13:52.3780,6.28,-13.61,5.9,-3.62,2.39,1.3
2022-12-08 20:13:52.3880,6.61,-14.59,5.06,-3.71,2.73,1.22
2022-12-08 20:13:52.3970,6.58,-13.0,4.98,-3.75,2.4,1.4
2022-12-08 20:13:52.4070,5.03,-10.44,6.33,-3.66,1.85,1.47
2022-12-08 20:13:52.4170,-0.55,-9.89,8.36,-3.4,1.52,1.29
2022-12-08 20:13:52.4270,-0.55,-9.89,8.36,-3.12,1.0,1.01
2022-12-08 20:13:52.4370,-2.06,-9.21,8.21,-2.73,0.42,0.74
2022-12-08 20:13:52.4470,-2.5,-7.76,8.29,-2.33,-0.11,0.54
2022-12-08 20:13:52.4570,-2.86,-4.73931563615799,8.59,-1.93,-0.59,0.32
2022-12-08 20:13:52.4670,-3.38,-4.74,8.59,-1.54,-0.92,0.02
2022-12-08 20:13:52.4770,-3.54,-4.11,7.21,-1.12,-1.02,-0.28
2022-12-08 20:13:52.4870,-2.49,-3.53,6.74,-0.71,-0.97,-0.36
2022-12-08 20:13:52.4970,-0.06,-2.59,7.82,-0.42,-0.55,-0.22
2022-12-08 20:13:52.5070,-0.43,-1.13,6.31,-0.02,-0.75,-0.39
2022-12-08 20:13:52.5170,5.01,-0.27,9.11,0.44,-0.88,-0.71
2022-12-08 20:13:52.5270,5.01,-0.27,9.11,0.86,-0.44,-0.96
2022-12-08 20:13:52.5360,6.63,0.79,8.63,1.22,0.16,-1.06
2022-12-08 20:13:52.5460,6.12,1.72,7.25,1.58,0.45,-1.23
2022-12-08 20:13:52.5570,4.55,1.73,6.63,1.96,0.4,-1.47
2022-12-08 20:13:52.5670,2.72,1.39,6.43,2.33,0.09,-1.62
2022-12-08 20:13:52.5770,1.54,1.51,6.31,2.67,-0.34,-1.74
2022-12-08 20:13:52.5860,1.48,1.65,6.06,2.98,-0.64,-1.92
2022-12-08 20:13:52.5960,1.96,1.36,5.74,3.26,-0.72,-2.1
2022-12-08 20:13:52.6070,2.12,1.08,5.28,3.52,-0.7,-2.23
2022-12-08 20:13:52.6160,2.02,0.99,5.106956396698952,3.75,-0.62,-2.32
2022-12-08 20:13:52.6260,1.63,0.93,5.1,4.0,-0.58,-2.46
2022-12-08 20:13:52.6360,1.19,0.48,4.93,4.26,-0.52,-2.64
2022-12-08 20:13:52.6460,0.54,-0.06,4.47,4.48,-0.36,-2.8
2022-12-08 20:13:52.6560,-0.43,-0.42,3.64,4.68,-0.21,-2.91
2022-12-08 20:13:52.6660,-0.89,-0.84,2.75,4.88,-0.13,-2.99
2022-12-08 20:13:52.6760,-0.74,-1.31,1.96,5.05,0.03,-3.03
2022-12-08 20:13:52.6860,-0.8,-1.62,0.7,5.18,0.13,-3.01
2022-12-08 20:13:52.6960,-1.16,-1.89,-0.37,5.31,0.07,-2.96
2022-12-08 20:13:52.7060,-1.33,-2.28,-0.98,5.43,-0.1,-2.89
2022-12-08 20:13:52.7160,-1.53,-2.91,-1.57,5.51,-0.25,-2.84
2022-12-08 20:13:52.7260,-2.34,-3.83,-2.57,5.54,-0.36,-2.84
2022-12-08 20:13:52.7360,-3.4,-5.05,-3.64,5.51,-0.35,-2.83
2022-12-08 20:13:52.7460,-4.73,-6.03,-4.65,5.45,-0.37,-2.8
2022-12-08 20:13:52.7560,-5.92,-6.76,-5.25,5.37,-0.46,-2.77
2022-12-08 20:13:52.7660,-6.56,-7.41,-5.83,5.21,-0.47,-2.72
2022-12-08 20:13:52.7760,-6.94,-7.76,-7.04,4.96,-0.39,-2.63
2022-12-08 20:13:52.7860,-7.17,-7.82,-8.65,4.61,-0.32,-2.48
2022-12-08 20:13:52.7950,-7.19,-7.58,-9.91,4.15,-0.27,-2.23
2022-12-08 20:13:52.8050,-7.12,-6.9,-10.93,3.61,-0.13,-1.88
2022-12-08 20:13:52.8150,-8.0,-4.43,-12.39,3.03,0.12,-1.45
2022-12-08 20:13:52.8250,-8.0,-4.43,-12.39,2.41,0.47,-0.99
2022-12-08 20:13:52.8350,-8.67,-2.89,-13.35,1.68,0.85,-0.57
2022-12-08 20:13:52.8450,-8.99,-1.36,-14.64,0.85,1.1,-0.12
2022-12-08 20:13:52.8550,-8.99,0.51,-15.27,0.09,1.0,0.44
2022-12-08 20:13:52.8650,-8.99,2.41,-14.88,-0.52,0.63,0.93
2022-12-08 20:13:52.8750,-9.33,2.9,-13.74,-1.03,0.44,1.2
2022-12-08 20:13:52.8850,-9.6,1.75,-13.22,-1.49,0.35,1.41
2022-12-08 20:13:52.8950,-9.06,0.83,-12.54,-1.84,0.15,1.66
2022-12-08 20:13:52.9050,-7.68,0.37,-11.17,-2.19,-0.12,1.87
2022-12-08 20:13:52.9150,-4.98,-1.33,-10.12,-2.44,-0.74,2.06
2022-12-08 20:13:52.9250,-4.98,-1.33,-10.12,-1.82,-2.27,1.77
2022-12-08 20:13:52.9350,-2.67,-4.31,-3.06,-0.37,-6.0,0.12
2022-12-08 20:13:52.9450,18.75,-10.38,14.58,-0.58,-4.29,-0.51
2022-12-08 20:13:52.9550,18.75,-10.38,14.58,-1.59,1.18,0.06
2022-12-08 20:13:52.9650,22.6,-1.28,-22.95,-2.14,2.57,1.49
2022-12-08 20:13:52.9740,11.77,-3.47,-15.1,-2.31,-0.52,2.87
2022-12-08 20:13:52.9840,-1.82,-8.61,5.56,-2.31,-1.97,4.01
2022-12-08 20:13:52.9940,-9.93,-5.34,1.93,-2.35,-1.12,4.4
2022-12-08 20:13:53.0040,-10.77,-0.64,-8.26,-2.3,-0.46,3.57
2022-12-08 20:13:53.0140,-6.98,-2.45,-2.01,-1.98,-0.03,2.11
2022-12-08 20:13:53.0240,-6.98,-2.45,-2.01,-1.78,0.86,1.54
2022-12-08 20:13:53.0340,-6.34,1.0,-6.13,-1.51,0.28,1.61
2022-12-08 20:13:53.0440,-3.9,1.41,-3.68,-1.34,-0.16,1.55
2022-12-08 20:13:53.0540,-1.63,-1.6,-2.72,-1.29,0.2,1.35
2022-12-08 20:13:53.0640,-0.9,-2.94,-3.73,-1.23,0.51,1.18
2022-12-08 20:13:53.0740,-0.8,-2.35,-2.85,-1.11,0.39,1.09
2022-12-08 20:13:53.0840,-1.1,-0.92,-1.82,-0.94,0.27,1.0
2022-12-08 20:13:53.0940,-1.53,-0.02,-1.76,-0.76,0.23,0.8
2022-12-08 20:13:53.1040,-1.96,-0.31,-2.52,-0.62,0.11,0.58
2022-12-08 20:13:53.1140,-1.87,-1.81,-1.06,-0.52,0.01,0.46
2022-12-08 20:13:53.1240,-1.87,-1.81,-1.06,-0.45,0.14,0.39
2022-12-08 20:13:53.1340,-0.86,-1.57,-0.57,-0.42,0.44,0.41
2022-12-08 20:13:53.1440,0.62,-0.95,-0.6,-0.42,0.65,0.52
2022-12-08 20:13:53.1540,1.78,-0.67,-0.44,-0.44,0.73,0.57
2022-12-08 20:13:53.1640,1.62,-0.8,-0.34,-0.43,0.72,0.51
2022-12-08 20:13:53.1740,0.1,-0.91,-0.19,-0.4,0.64,0.42
2022-12-08 20:13:53.1840,-1.4,-0.52,0.27,-0.39,0.55,0.34
2022-12-08 20:13:53.1940,-1.4,-0.52,0.27,-0.38,0.48,0.3
2022-12-08 20:13:53.2040,-0.75,-0.28,0.28,-0.4,0.46,0.3
2022-12-08 20:13:53.2130,0.04,-0.06,0.22,-0.42,0.47,0.31
2022-12-08 20:13:53.2230,0.43,0.15,0.08,-0.45,0.48,0.32
2022-12-08 20:13:53.2330,0.13,0.47,0.06,-0.45,0.42,0.33
2022-12-08 20:13:53.2430,-0.76,1.08,0.26,-0.45,0.36,0.33
2022-12-08 20:13:53.2530,-1.0,1.13,0.41,-0.44,0.31,0.31
2022-12-08 20:13:53.2630,-1.0,1.13,0.41,-0.43,0.27,0.31
2022-12-08 20:13:53.2730,-1.07,1.17,0.69,-0.43,0.26,0.34
2022-12-08 20:13:53.2830,-0.81,1.12,0.88,-0.44,0.24,0.37
2022-12-08 20:13:53.2930,-0.34,0.79,0.91,-0.48,0.24,0.38
2022-12-08 20:13:53.3030,-0.1,0.51,0.66,-0.52,0.2,0.42
2022-12-08 20:13:53.3130,0.19,0.54,0.54,-0.56,0.21,0.45
2022-12-08 20:13:53.3230,0.19,0.54,0.54,-0.61,0.24,0.48
2022-12-08 20:13:53.3330,0.34,0.52,0.48,-0.66,0.26,0.53
2022-12-08 20:13:53.3430,0.55,0.49,0.72,-0.72,0.31,0.59
2022-12-08 20:13:53.3530,0.76,0.23,0.98,-0.79,0.4,0.67
2022-12-08 20:13:53.3630,1.01,-0.09,1.32,-0.89,0.49,0.77
2022-12-08 20:13:53.3720,1.26,-0.28,1.51,-1.0,0.53,0.86
2022-12-08 20:13:53.3830,1.37,-0.35,1.74,-1.12,0.53,0.94
2022-12-08 20:13:53.3920,1.37,-0.33,1.88,-1.23,0.48,1.02
2022-12-08 20:13:53.4030,1.22,-0.68,2.15,-1.34,0.4,1.07
2022-12-08 20:13:53.4120,1.02,-0.68,2.15,-1.45,0.3,1.14
2022-12-08 20:13:53.4220,0.82,-1.27,2.34,-1.58,0.2,1.21
2022-12-08 20:13:53.4320,0.8,-1.96,2.65,-1.72,0.19,1.29
2022-12-08 20:13:53.4420,1.23,-2.46,2.58,-1.86,0.24,1.36
2022-12-08 20:13:53.4520,1.96,-2.71,2.55,-2.02,0.33,1.48
2022-12-08 20:13:53.4620,2.77,-2.98,2.79,-2.2,0.49,1.62
2022-12-08 20:13:53.4720,3.56,-3.69,3.15,-2.39,0.71,1.75
2022-12-08 20:13:53.4820,4.11,-4.78,3.61,-2.58,0.9,1.88
2022-12-08 20:13:53.4920,4.32,-5.72,4.15,-2.76,1.15,1.97
2022-12-08 20:13:53.5020,4.49,-6.46,4.53,-2.94,1.46,1.93
2022-12-08 20:13:53.5120,5.57,-9.05,4.44,-3.14,1.69,1.8
2022-12-08 20:13:53.5220,5.57,-9.05,4.44,-3.24,1.85,1.59
2022-12-08 20:13:53.5320,6.66,-11.63,5.47,-3.41,2.13,1.34
2022-12-08 20:13:53.5420,7.65,-15.13,5.92,-3.61,2.44,1.21
2022-12-08 20:13:53.5520,8.6,-17.14,5.85,-3.72,2.6,1.23
2022-12-08 20:13:53.5630,8.73,-15.96,6.18,-3.71,2.28,1.33
2022-12-08 20:13:53.5720,6.47,-13.24,7.75,-3.59,1.8,1.41
2022-12-08 20:13:53.5820,3.03,-11.22,9.56,-3.33,1.41,1.33
2022-12-08 20:13:53.5920,0.16,-10.45,9.45,-3.01,1.03,1.06
2022-12-08 20:13:53.6020,-2.53,-8.82,8.58,-2.62,0.69,0.73
2022-12-08 20:13:53.6110,-3.065472972393036,-7.83,10.05,-2.17,0.27,0.4
2022-12-08 20:13:53.6210,-3.07,-7.83,10.05,-1.68,-0.19,0.04
2022-12-08 20:13:53.6310,-2.94,-6.98,10.82,-1.24,-0.43,-0.27
2022-12-08 20:13:53.6410,-1.84,-5.4,9.26,-0.79,-0.22,-0.55
2022-12-08 20:13:53.6510,0.38,-4.15,6.74,-0.49,0.36,-0.44
2022-12-08 20:13:53.6610,-0.74,-2.54,6.0,-0.06,-0.02,-0.54
2022-12-08 20:13:53.6710,-0.82,-1.63,7.08,0.44,-0.55,-0.84
2022-12-08 20:13:53.6810,3.35,-1.02,10.01,0.91,-0.52,-1.12
2022-12-08 20:13:53.6910,6.77,0.02,9.52,1.29,0.08,-1.26
2022-12-08 20:13:53.7010,7.76,1.1,7.2,1.64,0.59,-1.41
2022-12-08 20:13:53.7110,4.34,0.86,6.07,2.02,0.69,-1.67
2022-12-08 20:13:53.7210,4.34,0.86,6.07,2.41,0.43,-1.86
2022-12-08 20:13:53.7310,2.41,1.15,6.08,2.8,-0.08,-1.99
2022-12-08 20:13:53.7410,1.9,1.42,6.27,3.16,-0.49,-2.17
2022-12-08 20:13:53.7510,2.58,1.3,5.97,3.46,-0.64,-2.38
2022-12-08 20:13:53.7610,3.38,1.25,5.21,3.73,-0.58,-2.56
2022-12-08 20:13:53.7700,3.46,1.37,4.7,4.01,-0.45,-2.72
2022-12-08 20:13:53.7800,2.87,1.35,4.39,4.29,-0.38,-2.85
2022-12-08 20:13:53.7900,2.21,1.04,4.47,4.59,-0.39,-2.98
2022-12-08 20:13:53.8000,1.58,0.45,4.56,4.88,-0.36,-3.16
2022-12-08 20:13:53.8100,0.33,-1.5,2.41,5.13,-0.29,-3.35
2022-12-08 20:13:53.8200,0.33,-1.5,2.41,5.35,-0.2,-3.51
2022-12-08 20:13:53.8300,-0.12,-2.12,1.08,5.52,-0.05,-3.62
2022-12-08 20:13:53.8400,-0.42,-2.58,-0.62,5.64,0.03,-3.6
2022-12-08 20:13:53.8500,-0.6,-2.8,-1.88,5.72,-0.04,-3.56
2022-12-08 20:13:53.8600,-0.65,-3.5,-2.78,5.75,-0.14,-3.49
2022-12-08 20:13:53.8700,-1.23,-4.36,-4.06,5.75,-0.2,-3.47
2022-12-08 20:13:53.8800,-2.43,-5.33,-5.28,5.72,-0.19,-3.49
2022-12-08 20:13:53.8900,-3.57,-6.57,-6.33,5.63,-0.13,-3.44
