time,ax,ay,az,wx,wy,wz
2022-12-08 20:19:32.8280,0.34,-0.1,-0.86,0.08,0.11,-0.09
2022-12-08 20:19:32.8370,0.26,0.24,-1.03,0.1,0.18,-0.13
2022-12-08 20:19:32.8470,0.28,-0.9,-0.73,0.11,0.21,-0.14
2022-12-08 20:19:32.8580,0.28,-0.9,-0.73,0.1,0.16,-0.11
2022-12-08 20:19:32.8670,-0.42,0.01,0.05,0.1,0.03,-0.1
2022-12-08 20:19:32.8770,-0.42,0.01,0.05,0.09,0.01,-0.11
2022-12-08 20:19:32.8870,-0.24,0.57,0.06,0.1,0.1,-0.1
2022-12-08 20:19:32.8970,0.17,0.57,0.06,0.09,0.13,-0.09
2022-12-08 20:19:32.9070,0.43,0.29,0.22,0.07,0.15,-0.06
2022-12-08 20:19:32.9170,0.24,0.09,0.2,0.03,0.12,-0.02
2022-12-08 20:19:32.9270,0.03,0.35,0.34,-0.02,0.09,-0.01
2022-12-08 20:19:32.9370,-0.02,0.25,0.49,-0.07,0.06,0.01
2022-12-08 20:19:32.9470,0.08,0.24,0.43,-0.1,0.08,0.03
2022-12-08 20:19:32.9570,0.27,0.37,0.37,-0.13,0.11,0.06
2022-12-08 20:19:32.9670,0.27,0.37,0.37,-0.14,0.12,0.08
2022-12-08 20:19:32.9770,0.13,0.47,0.6,-0.14,0.1,0.1
2022-12-08 20:19:32.9870,0.07,0.75,0.89,-0.15,0.07,0.07
2022-12-08 20:19:32.9970,-0.21,0.53,0.65,-0.17,0.01,0.04
2022-12-08 20:19:33.0070,-0.62,-0.11,0.2,-0.19,-0.09,0.03
2022-12-08 20:19:33.0170,-0.77,-0.15,0.34,-0.23,-0.15,0.02
2022-12-08 20:19:33.0260,-0.51,0.04,0.28,-0.26,-0.16,0.01
2022-12-08 20:19:33.0370,0.0,0.03,0.22,-0.3,-0.13,0.02
2022-12-08 20:19:33.0470,0.22,0.09,0.29,-0.36,-0.14,0.03
2022-12-08 20:19:33.0560,0.09,0.24,0.43,-0.46,-0.2,0.04
2022-12-08 20:19:33.0660,0.03,0.26,0.68,-0.57,-0.25,0.1
2022-12-08 20:19:33.0770,0.13,0.0,0.72,-0.68,-0.28,0.22
2022-12-08 20:19:33.0860,0.44,-0.02,1.23,-0.8,-0.32,0.36
2022-12-08 20:19:33.0960,0.74,0.59,2.14,-0.91,-0.31,0.46
2022-12-08 20:19:33.1060,1.02,1.1229215133190156,1.87,-1.0,-0.24,0.57
2022-12-08 20:19:33.1170,1.06,1.12,1.87,-1.1,-0.33,0.74
2022-12-08 20:19:33.1260,0.73,1.18,2.06,-1.24,-0.53,0.89
2022-12-08 20:19:33.1360,0.08679782330989838,0.7,2.46,-1.35,-0.64,0.98
2022-12-08 20:19:33.1460,0.08,0.7,2.46,-1.43,-0.7,1.06
2022-12-08 20:19:33.1560,-0.34,-0.18,1.98,-1.48,-0.84,1.13
2022-12-08 20:19:33.1660,-0.61,-1.02,2.05,-1.54,-1.01,1.2
2022-12-08 20:19:33.1760,-0.67,-1.56,2.3,-1.58,-1.05,1.23
2022-12-08 20:19:33.1860,-0.43,-1.48,1.99,-1.55,-1.06,1.19
2022-12-08 20:19:33.1960,0.08,-0.93,1.87,-1.48,-1.02,1.14
2022-12-08 20:19:33.2060,0.39,-0.43,2.43,-1.32,-0.8,1.13
2022-12-08 20:19:33.2160,0.3,-0.37,4.27,-1.17,-0.57,1.08
2022-12-08 20:19:33.2260,0.58,-0.49,6.38,-0.93,-0.45,1.0
2022-12-08 20:19:33.2360,1.15,-0.6,6.26,-0.67,-0.41,0.94
2022-12-08 20:19:33.2450,1.63,-0.41,6.31,-0.47,-0.44,0.86
2022-12-08 20:19:33.2550,2.52,-0.18,6.67,-0.28,-0.41,0.79
2022-12-08 20:19:33.2650,2.87,0.29,5.85,-0.1,-0.47,0.67
2022-12-08 20:19:33.2750,3.06,0.63,5.74,0.04,-0.55,0.57
2022-12-08 20:19:33.2850,3.2,0.85,5.94,0.17,-0.6,0.46
2022-12-08 20:19:33.2950,3.0,1.0,5.31,0.26,-0.65,0.34
2022-12-08 20:19:33.3050,2.96,0.85,4.551181472539902,0.36,-0.72,0.28
2022-12-08 20:19:33.3150,3.09,1.04,4.55,0.46,-0.77,0.17
2022-12-08 20:19:33.3250,3.43,1.1,4.06,0.56,-0.75,-0.0
2022-12-08 20:19:33.3350,4.29,1.02,2.69,0.65,-0.7,-0.16
2022-12-08 20:19:33.3450,4.29,1.02,2.69,0.73,-0.66,-0.28
2022-12-08 20:19:33.3550,4.35,1.12,2.27,0.8,-0.6,-0.41
2022-12-08 20:19:33.3650,4.22,1.06,1.87,0.84,-0.54,-0.53
2022-12-08 20:19:33.3750,3.94,1.05,1.49,0.87,-0.49,-0.65
2022-12-08 20:19:33.3850,3.58,1.06,1.15,0.88,-0.47,-0.74
2022-12-08 20:19:33.3950,3.22,1.07,0.87,0.88,-0.46,-0.83
2022-12-08 20:19:33.4050,2.91,0.98,0.65,0.89,-0.47,-0.9
2022-12-08 20:19:33.4150,2.57,0.8,0.5907041439414025,0.91,-0.51,-0.96
2022-12-08 20:19:33.4250,2.15,0.46,0.59,0.94,-0.54,-1.02
2022-12-08 20:19:33.4350,1.91,-0.02,0.5,0.96,-0.54,-1.06
2022-12-08 20:19:33.4440,1.8,-0.27,0.2,0.98,-0.54,-1.08
2022-12-08 20:19:33.4540,1.65,-0.09,-0.02,0.99,-0.56,-1.1
2022-12-08 20:19:33.4640,1.5,0.08,-0.27,0.99,-0.55,-1.14
2022-12-08 20:19:33.4740,1.33,0.01,-0.65,0.97,-0.56,-1.17
2022-12-08 20:19:33.4840,1.07,-0.15,-0.99,0.94,-0.57,-1.18
2022-12-08 20:19:33.4940,0.71,-0.4,-1.24,0.92,-0.59,-1.18
2022-12-08 20:19:33.5040,0.2,-0.66,-1.49,0.9,-0.66,-1.13
2022-12-08 20:19:33.5140,-0.44,-0.71,-1.48,0.86,-0.78,-1.07
2022-12-08 20:19:33.5240,-1.15,-0.69,-1.47,0.76,-0.9,-0.99
2022-12-08 20:19:33.5340,-1.93,-1.16,-3.21,0.67,-0.89,-0.95
2022-12-08 20:19:33.5440,-1.93,-1.16,-3.21,0.58,-0.7,-0.95
2022-12-08 20:19:33.5540,-1.86,-0.55,-4.37,0.49,-0.48,-0.86
2022-12-08 20:19:33.5640,-1.98,1.09,-4.61,0.39,-0.29,-0.71
2022-12-08 20:19:33.5740,-2.64,1.64,-4.73,0.28,-0.11,-0.64
2022-12-08 20:19:33.5840,-3.21,0.31,-4.76,0.18,0.08,-0.54
2022-12-08 20:19:33.5940,-3.45,-1.08,-5.25,0.09,0.25,-0.38
2022-12-08 20:19:33.6040,-3.63,-0.77,-5.85,-0.04,0.4,-0.19
2022-12-08 20:19:33.6140,-4.18,0.45,-6.23,-0.2,0.49,-0.01
2022-12-08 20:19:33.6240,-5.23,1.35,-6.47,-0.39,0.43,0.18
2022-12-08 20:19:33.6330,-7.97,1.22,-6.07,-0.56,0.2,0.4
2022-12-08 20:19:33.6430,-7.97,1.22,-6.07,-0.7,-0.22,0.62
2022-12-08 20:19:33.6530,-9.01,0.84,-5.34,-0.85,-0.71,0.83
2022-12-08 20:19:33.6630,-8.79,0.26,-4.89,-0.99,-1.12,0.96
2022-12-08 20:19:33.6730,-7.08,0.48,-5.44,-1.1,-1.29,1.05
2022-12-08 20:19:33.6830,-5.0,1.33,-6.95,-1.07,-1.2,1.15
2022-12-08 20:19:33.6930,-3.76,1.9,-7.52,-1.07,-1.2,1.3
2022-12-08 20:19:33.7030,-3.4,2.31,-5.31,-0.91,-1.38,1.16
2022-12-08 20:19:33.7130,-2.84,2.24,-2.47,-0.35,-2.17,0.44
2022-12-08 20:19:33.7230,3.32,0.3,6.71,-0.36,-3.59,-0.94
2022-12-08 20:19:33.7330,16.49,-6.41,24.41,-0.12,-0.11,-0.68
2022-12-08 20:19:33.7430,18.29,-7.53,6.43,-0.27,4.78,1.65
2022-12-08 20:19:33.7530,-2.1,-1.98,-18.07,-0.73,2.5,3.26
2022-12-08 20:19:33.7630,-17.73,-3.28,-11.23,-1.11,-0.76,2.31
2022-12-08 20:19:33.7730,-18.27,-16.46,5.22,-1.24,-1.41,0.7
2022-12-08 20:19:33.7830,2.51,3.73,-2.4,-1.15,-1.02,0.97
2022-12-08 20:19:33.7930,6.46,6.49,-4.42,-0.87,-0.16,1.84
2022-12-08 20:19:33.8030,4.46,1.25,-6.28,-0.58,0.85,1.77
2022-12-08 20:19:33.8130,4.46,1.25,-6.28,-0.6,0.73,1.34
2022-12-08 20:19:33.8230,-3.35,-1.41,-1.07,-0.6,-0.05,0.99
2022-12-08 20:19:33.8330,-8.07,-1.73,0.53,-0.65,-0.7,0.6
2022-12-08 20:19:33.8420,-5.64,-2.97,0.64,-0.6,-0.5,0.53
2022-12-08 20:19:33.8520,2.66,0.48,-1.97,-0.5,0.11,0.65
2022-12-08 20:19:33.8630,2.18,0.76,-0.98,-0.44,0.53,0.65
2022-12-08 20:19:33.8720,2.18,0.76,-0.98,-0.45,0.41,0.57
2022-12-08 20:19:33.8820,-2.27,-0.72,1.44,-0.49,0.05,0.49
2022-12-08 20:19:33.8920,-2.27,-0.72,1.44,-0.5,-0.12,0.4
2022-12-08 20:19:33.9020,-1.48,-0.9,0.04,-0.5,-0.16,0.38
2022-12-08 20:19:33.9120,-0.2,-0.18,-0.44,-0.5,-0.09,0.39
2022-12-08 20:19:33.9220,0.32,0.35,-0.23,-0.5,-0.01,0.39
2022-12-08 20:19:33.9320,0.15,0.19,-0.11,-0.51,0.01,0.38
2022-12-08 20:19:33.9420,-0.44,0.11,0.23,-0.52,-0.04,0.33
2022-12-08 20:19:33.9520,-0.66,0.46,0.23,-0.52,-0.08,0.29
2022-12-08 20:19:33.9620,-0.66,0.46,0.23,-0.52,-0.08,0.29
2022-12-08 20:19:33.9720,-0.24,0.28,0.22,-0.51,-0.05,0.27
2022-12-08 20:19:33.9820,0.07,-0.12,-0.02,-0.48,0.0,0.26
2022-12-08 20:19:33.9920,0.07,-0.33,-0.47,-0.44,-0.01,0.28
2022-12-08 20:19:34.0020,0.07,-0.09,-0.59,-0.4,-0.02,0.3
2022-12-08 20:19:34.0110,0.07,-0.09,-0.59,-0.38,-0.03,0.3
2022-12-08 20:19:34.0210,0.02,-0.06,-0.75,-0.39,-0.05,0.3
2022-12-08 20:19:34.0320,0.25,0.02,-0.06,-0.42,-0.01,0.3
2022-12-08 20:19:34.0410,0.25,0.02,-0.06,-0.44,0.05,0.31
2022-12-08 20:19:34.0510,0.58,0.03,0.02,-0.46,0.08,0.37
2022-12-08 20:19:34.0610,0.66,0.15,0.17,-0.49,0.06,0.43
2022-12-08 20:19:34.0710,0.41,0.24,0.41,-0.54,0.04,0.45
2022-12-08 20:19:34.0810,0.3,0.03,0.33,-0.57,0.06,0.48
2022-12-08 20:19:34.0910,0.52,-0.12,0.19,-0.61,0.09,0.58
2022-12-08 20:19:34.1010,1.39,0.03,0.52,-0.67,0.13,0.69
2022-12-08 20:19:34.1110,1.39,0.03,0.52,-0.76,0.16,0.81
2022-12-08 20:19:34.1210,1.08,0.2,1.65,-0.89,0.09,0.91
2022-12-08 20:19:34.1310,1.08,0.2,1.65,-1.02,0.06,0.99
2022-12-08 20:19:34.1410,0.99,0.01,1.41,-1.13,0.06,1.07
2022-12-08 20:19:34.1510,1.09,-0.15,0.83,-1.25,0.11,1.16
2022-12-08 20:19:34.1610,1.64,-0.43,0.15,-1.33,0.14,1.31
2022-12-08 20:19:34.1710,1.64,-0.43,0.15,-1.44,0.07,1.44
2022-12-08 20:19:34.1810,1.05,-0.83,0.33,-1.53,-0.05,1.52
2022-12-08 20:19:34.1910,0.78,-1.6,0.5,-1.62,-0.06,1.61
2022-12-08 20:19:34.2010,2.4,-2.56,0.3,-1.75,0.02,1.72
2022-12-08 20:19:34.2110,2.4,-2.56,0.3,-1.82,0.19,1.84
2022-12-08 20:19:34.2210,3.17,-2.96,-0.05,-1.88,0.45,1.97
2022-12-08 20:19:34.2310,2.92,-4.07,0.67,-1.94,0.65,2.14
2022-12-08 20:19:34.2410,2.68,-4.97,1.95,-2.04,0.83,2.29
2022-12-08 20:19:34.2510,2.79,-5.49,2.57,-2.17,0.96,2.4
2022-12-08 20:19:34.2600,3.09,-6.16,2.99,-2.31,1.06,2.52
2022-12-08 20:19:34.2700,3.81,-7.27,3.6,-2.5,1.04,2.61
2022-12-08 20:19:34.2800,5.11,-11.96,6.06,-2.71,0.93,2.63
2022-12-08 20:19:34.2900,5.35,-14.75,7.73,-2.89,0.96,2.68
2022-12-08 20:19:34.3010,5.35,-14.75,7.73,-3.05,1.13,2.72
2022-12-08 20:19:34.3110,6.33,-15.82,7.65,-3.07,1.36,2.68
2022-12-08 20:19:34.3200,7.09,-14.75,7.64,-2.92,2.1,2.82
2022-12-08 20:19:34.3300,5.44,-8.88,7.63,-2.84,1.94,2.8
2022-12-08 20:19:34.3400,5.44,-8.88,7.63,-2.64,1.72,2.58
2022-12-08 20:19:34.3500,2.82,-8.56,9.41,-2.37,1.64,2.32
2022-12-08 20:19:34.3600,2.82,-8.56,9.41,-2.05,1.34,2.02
2022-12-08 20:19:34.3700,1.54,-7.34,10.95,-1.81,0.93,1.73
2022-12-08 20:19:34.3800,0.42,-6.13,11.56,-1.66,0.5,1.11
2022-12-08 20:19:34.3900,0.42,-6.13,11.56,-1.31,0.33,0.33
2022-12-08 20:19:34.3990,3.38,-2.66,8.99,-1.1,0.15,0.12
2022-12-08 20:19:34.4100,4.24,-1.3,6.33,-0.68,0.17,-0.18
2022-12-08 20:19:34.4190,4.24,-1.3,6.33,-0.36,-0.18,-0.54
2022-12-08 20:19:34.4290,6.97,-0.67,8.23,-0.13,-0.88,-0.69
2022-12-08 20:19:34.4390,7.83,1.31,10.25,0.13,-1.13,-0.81
2022-12-08 20:19:34.4490,7.38,1.98,7.57,0.37,-1.31,-1.11
2022-12-08 20:19:34.4590,6.96,1.48,6.16,0.61,-1.62,-1.47
2022-12-08 20:19:34.4690,6.32,0.97,6.68,0.82,-1.94,-1.76
2022-12-08 20:19:34.4790,5.11,1.08,7.16,1.04,-2.22,-2.01
2022-12-08 20:19:34.4890,3.62,1.65,7.0,1.25,-2.45,-2.28
2022-12-08 20:19:34.4990,3.62,1.65,7.0,1.45,-2.63,-2.57
2022-12-08 20:19:34.5090,3.48,1.67,6.83,1.64,-2.67,-2.86
2022-12-08 20:19:34.5190,3.51,1.6,6.2,1.83,-2.6,-3.14
2022-12-08 20:19:34.5290,3.7,1.34,5.17,2.01,-2.43,-3.4
2022-12-08 20:19:34.5390,3.7,1.34,5.17,2.18,-2.19,-3.62
2022-12-08 20:19:34.5490,3.67,1.31,4.56,2.35,-1.93,-3.83
2022-12-08 20:19:34.5590,3.07,0.7,3.38,2.53,-1.64,-4.03
2022-12-08 20:19:34.5690,3.07,0.7,3.38,2.73,-1.39,-4.2
2022-12-08 20:19:34.5790,2.28,0.12,2.91,2.93,-1.21,-4.32
2022-12-08 20:19:34.5890,1.06,-0.56,2.61,3.12,-1.15,-4.35
2022-12-08 20:19:34.5990,-0.5,-1.1,2.37,3.28,-1.24,-4.33
2022-12-08 20:19:34.6090,-3.17,-2.13,2.15,3.41,-1.41,-4.33
2022-12-08 20:19:34.6180,-3.96,-2.76,1.82,3.51,-1.58,-4.36
2022-12-08 20:19:34.6280,-3.96,-2.76,1.82,3.59,-1.72,-4.41
2022-12-08 20:19:34.6380,-5.17,-4.31,0.8,3.64,-1.79,-4.49
2022-12-08 20:19:34.6490,-5.17,-4.31,0.8,3.67,-1.73,-4.59
2022-12-08 20:19:34.6580,-5.86,-5.48,-1.5188095879554748,3.69,-1.59,-4.63
2022-12-08 20:19:34.6680,-6.8,-6.43,-1.52,3.64,-1.46,-4.58
2022-12-08 20:19:34.6780,-7.72,-7.21,-2.48,3.55,-1.29,-4.49
2022-12-08 20:19:34.6880,-8.91,-8.72,-5.51,3.42,-1.03,-4.33
2022-12-08 20:19:34.6980,-8.91,-8.72,-5.51,3.2,-0.69,-4.07
2022-12-08 20:19:34.7080,-9.56,-9.07,-6.84,2.91,-0.29,-3.71
2022-12-08 20:19:34.7180,-10.36,-8.9,-7.87,2.59,0.16,-3.3
2022-12-08 20:19:34.7280,-11.45,-7.99,-8.63,2.31,0.58,-2.86
2022-12-08 20:19:34.7380,-14.41,-4.94,-8.44,2.03,0.96,-2.37
2022-12-08 20:19:34.7480,-14.41,-4.94,-8.44,1.71,1.26,-1.84
2022-12-08 20:19:34.7580,-15.41,-3.37,-9.11,1.31,1.41,-1.3
2022-12-08 20:19:34.7680,-15.65,-1.64,-10.74,0.84,1.3,-0.79
2022-12-08 20:19:34.7770,-15.28,-0.12,-12.29,0.33,0.96,-0.28
2022-12-08 20:19:34.7880,-14.33,0.96,-12.75,-0.11,0.61,0.23
2022-12-08 20:19:34.7980,-14.33,0.96,-12.75,-0.43,0.17,0.73
2022-12-08 20:19:34.8070,-14.0,0.48,-11.01,-0.79,-0.41,1.36
2022-12-08 20:19:34.8170,-14.0,0.57,-9.18,-1.09,-0.65,1.75
2022-12-08 20:19:34.8270,-13.16,-0.26,-10.62,-1.34,-0.99,2.2
2022-12-08 20:19:34.8370,-10.4,-1.72,-11.33,-1.11,-1.68,2.29
2022-12-08 20:19:34.8470,-10.4,-1.72,-11.33,-0.36,-2.69,1.45
2022-12-08 20:19:34.8570,5.8,-5.26,8.75,-1.29,-3.23,-0.54
2022-12-08 20:19:34.8680,24.98,-11.16,15.08,-0.84,1.29,-1.04
2022-12-08 20:19:34.8770,12.3,-13.01,-22.87,0.11,2.08,2.05
2022-12-08 20:19:34.8870,-6.28,-6.71,-12.06,-0.81,-0.5,5.02
2022-12-08 20:19:34.8970,-19.3,-8.7,11.81,-0.97,-1.19,4.01
2022-12-08 20:19:34.9070,-11.72,-7.66,6.36,-0.85,-0.72,2.24
2022-12-08 20:19:34.9170,-0.4,1.44,-2.08,-0.77,0.03,1.76
2022-12-08 20:19:34.9270,-0.36,6.95,-3.61,-0.87,0.46,1.97
2022-12-08 20:19:34.9370,-3.17,4.72,-3.01,-0.74,0.39,1.69
2022-12-08 20:19:34.9470,-3.2,-3.34,-3.86,-0.72,-0.08,1.46
2022-12-08 20:19:34.9570,-3.24,-6.66,-0.86,-0.7,-0.18,1.35
2022-12-08 20:19:34.9670,-3.88,-5.21,-2.48,-0.55,-0.24,1.15
2022-12-08 20:19:34.9770,-0.63,-0.62,-0.94,-0.5,-0.36,0.98
2022-12-08 20:19:34.9870,-0.63,-0.62,-0.94,-0.37,-0.28,0.89
2022-12-08 20:19:34.9970,-0.11,0.46,-1.73,-0.31,-0.29,0.79
2022-12-08 20:19:35.0070,-0.16,-0.32,-1.35,-0.28,-0.21,0.66
2022-12-08 20:19:35.0160,-1.03,-1.45,-0.52,-0.26,-0.13,0.55
2022-12-08 20:19:35.0260,-1.03,-1.45,-0.52,-0.24,-0.07,0.51
2022-12-08 20:19:35.0360,-0.49,-0.49,-0.24,-0.23,0.09,0.51
2022-12-08 20:19:35.0460,0.41,0.26,0.04,-0.21,0.28,0.53
2022-12-08 20:19:35.0560,1.03,0.22,0.0,-0.18,0.35,0.56
2022-12-08 20:19:35.0660,0.68,-0.15,-0.37,-0.16,0.27,0.53
2022-12-08 20:19:35.0760,-0.47,-0.36,-0.32,-0.15,0.15,0.44
2022-12-08 20:19:35.0860,-1.36,-0.34,-0.18,-0.14,0.03,0.36
2022-12-08 20:19:35.0960,-1.15,0.08,-0.42,-0.13,0.0,0.34
2022-12-08 20:19:35.1060,-0.3,0.08,-0.42,-0.14,0.08,0.35
2022-12-08 20:19:35.1160,0.37,0.11,-0.3,-0.15,0.19,0.37
2022-12-08 20:19:35.1260,0.63,0.13,-0.12,-0.16,0.3,0.4
2022-12-08 20:19:35.1360,0.49,0.14,0.022746692150831225,-0.19,0.29,0.42
2022-12-08 20:19:35.1460,0.15,0.09,0.02,-0.2,0.26,0.42
2022-12-08 20:19:35.1560,-0.05,0.0,0.11,-0.21,0.25,0.42
2022-12-08 20:19:35.1650,-0.07,0.04,0.2,-0.23,0.22,0.43
2022-12-08 20:19:35.1760,0.06,0.21,0.05,-0.24,0.22,0.46
2022-12-08 20:19:35.1860,0.19,0.28,-0.17,-0.27,0.19,0.49
2022-12-08 20:19:35.1950,0.24,0.29,0.04,-0.29,0.2,0.53
2022-12-08 20:19:35.2060,0.35,0.3,0.26,-0.32,0.21,0.57
2022-12-08 20:19:35.2160,0.54,0.18,0.07,-0.37,0.22,0.63
2022-12-08 20:19:35.2260,0.75,0.02,-0.23,-0.41,0.25,0.68
2022-12-08 20:19:35.2350,0.98,-0.1,-0.3,-0.43,0.27,0.77
2022-12-08 20:19:35.2450,1.05,-0.13,-0.06,-0.48,0.26,0.88
2022-12-08 20:19:35.2550,0.97,-0.04,0.16,-0.53,0.2,0.99
2022-12-08 20:19:35.2650,0.79,0.14,0.28,-0.61,0.1,1.08
2022-12-08 20:19:35.2750,0.67,0.29,0.62,-0.67,0.02,1.17
2022-12-08 20:19:35.2850,1.17,-0.24,0.57,-0.74,-0.03,1.27
2022-12-08 20:19:35.2950,1.17,-0.24,0.57,-0.81,-0.02,1.35
2022-12-08 20:19:35.3050,1.46,-0.87,0.42,-0.88,0.01,1.44
2022-12-08 20:19:35.3150,1.63,-1.48,0.41,-0.95,0.07,1.53
2022-12-08 20:19:35.3250,1.68,-1.91,0.51,-1.0,0.18,1.62
2022-12-08 20:19:35.3350,2.01,-2.23,0.44,-1.05,0.29,1.76
2022-12-08 20:19:35.3450,2.01,-2.23,0.44,-1.11,0.37,1.91
2022-12-08 20:19:35.3550,2.49,-2.21,0.52,-1.19,0.4,2.06
2022-12-08 20:19:35.3650,2.64,-2.54,0.85,-1.26,0.41,2.18
2022-12-08 20:19:35.3750,2.59,-3.89,2.69,-1.34,0.45,2.32
2022-12-08 20:19:35.3850,2.59,-3.89,2.69,-1.42,0.62,2.46
2022-12-08 20:19:35.3950,3.02,-4.41,3.07,-1.51,0.86,2.61
2022-12-08 20:19:35.4050,3.96,-4.89,3.38,-1.59,1.12,2.78
2022-12-08 20:19:35.4150,6.19,-6.6,3.55,-1.71,1.32,2.9
2022-12-08 20:19:35.4240,6.19,-6.6,3.55,-1.83,1.3,2.98
2022-12-08 20:19:35.4340,6.53,-12.17,5.84,-1.98,1.38,3.1
2022-12-08 20:19:35.4440,6.53,-12.17,5.84,-2.07,1.67,3.3
2022-12-08 20:19:35.4550,7.95,-14.02,4.76,-2.13,2.0,3.52
2022-12-08 20:19:35.4650,7.95,-14.02,4.76,-2.26,2.25,3.56
2022-12-08 20:19:35.4750,8.24,-13.96,4.773303161859513,-2.42,2.32,3.45
2022-12-08 20:19:35.4840,9.28,-13.11,4.77,-2.4,2.54,3.19
2022-12-08 20:19:35.4940,11.78,-8.95,7.08,-2.01,3.23,2.88
2022-12-08 20:19:35.5040,10.37,-6.99,8.26,-1.69,3.12,2.57
2022-12-08 20:19:35.5140,7.57,-5.88,9.55,-1.42,2.85,2.22
2022-12-08 20:19:35.5240,4.69,-4.9,9.22,-1.22,2.66,1.79
2022-12-08 20:19:35.5340,2.73,-4.26,8.57,-0.96,2.26,1.26
2022-12-08 20:19:35.5440,2.73,-4.26,8.57,-0.75,1.85,0.45
2022-12-08 20:19:35.5540,2.7,-4.12,8.07,-0.35,1.39,0.0
2022-12-08 20:19:35.5640,2.92,-3.0,8.72,-0.2,1.03,-0.07
2022-12-08 20:19:35.5740,0.79,-0.65,7.98,0.15,0.72,-0.4
2022-12-08 20:19:35.5840,3.32,-0.67,4.79,0.41,0.02,-0.92
2022-12-08 20:19:35.5930,12.0,1.58,7.21,0.67,-0.36,-1.27
2022-12-08 20:19:35.6030,12.0,1.58,7.21,0.94,-0.14,-1.4
2022-12-08 20:19:35.6130,12.46,2.92,3.84,1.2,0.14,-1.59
2022-12-08 20:19:35.6230,8.79,1.88,3.52,1.44,-0.01,-1.91
2022-12-08 20:19:35.6330,8.79,1.88,4.683694874346257,1.68,-0.58,-2.21
2022-12-08 20:19:35.6430,6.3,1.49,4.68,1.91,-1.2,-2.47
2022-12-08 20:19:35.6530,4.43,1.73,4.95,2.12,-1.68,-2.71
2022-12-08 20:19:35.6630,4.43,1.73,4.95,2.3,-1.93,-2.99
2022-12-08 20:19:35.6730,4.67,2.01,4.08,2.45,-2.04,-3.32
2022-12-08 20:19:35.6830,4.85,1.89,3.71,2.58,-2.01,-3.65
2022-12-08 20:19:35.6930,4.85,1.89,3.71,2.69,-1.79,-3.96
2022-12-08 20:19:35.7030,5.18,1.61,3.05,2.78,-1.48,-4.25
2022-12-08 20:19:35.7130,5.57,1.15,2.4,2.88,-1.04,-4.54
2022-12-08 20:19:35.7230,5.69,0.41,1.61,3.0,-0.58,-4.79
2022-12-08 20:19:35.7330,5.11,-0.56,0.74,3.13,-0.29,-4.97
2022-12-08 20:19:35.7430,3.78,-1.58,0.19,3.27,-0.21,-5.06
2022-12-08 20:19:35.7530,1.91,-2.33,-0.38,3.39,-0.29,-5.07
2022-12-08 20:19:35.7630,0.06,-3.0,-0.69,3.49,-0.46,-5.07
2022-12-08 20:19:35.7730,-1.37,-3.87,-0.89,3.55,-0.63,-5.08
2022-12-08 20:19:35.7830,-2.45,-4.73,-1.14,3.58,-0.8,-5.09
2022-12-08 20:19:35.7920,-3.15,-5.86,-1.0,3.56,-0.85,-5.12
2022-12-08 20:19:35.8020,-3.76,-7.37,-1.34,3.53,-0.67,-5.13
2022-12-08 20:19:35.8130,-5.3,-9.12,-2.44,3.56,-0.52,-5.06
2022-12-08 20:19:35.8240,-11.35,-11.83,-2.26,3.55,-0.59,-4.88
2022-12-08 20:19:35.8330,-11.35,-11.83,-2.26,3.43,-0.76,-4.67
2022-12-08 20:19:35.8430,-13.79,-12.09,-3.01,3.2,-0.84,-4.52
2022-12-08 20:19:35.8530,-14.54,-12.2,-5.6,2.9,-0.71,-4.29
2022-12-08 20:19:35.8620,-14.09,-11.59,-8.32,2.51,-0.43,-3.79
2022-12-08 20:19:35.8720,-13.77,-9.76,-9.68,2.14,-0.04,-3.02
2022-12-08 20:19:35.8820,-14.53,-7.61,-10.16,1.74,0.38,-2.21
2022-12-08 20:19:35.8920,-16.29,-5.62,-10.18,1.3,0.71,-1.55
2022-12-08 20:19:35.9020,-18.75,-2.39,-11.67,0.78,0.92,-1.0
2022-12-08 20:19:35.9120,-18.58,-0.47,-12.51,0.25,0.92,-0.36
2022-12-08 20:19:35.9220,-18.58,-0.47,-12.51,-0.23,0.64,0.32
2022-12-08 20:19:35.9320,-17.84,0.93,-11.66,-0.61,0.37,0.89
2022-12-08 20:19:35.9420,-16.91,0.64,-10.39,-0.91,0.04,1.34
2022-12-08 20:19:35.9520,-15.73,-0.73,-8.68,-1.18,-0.28,1.9
2022-12-08 20:19:35.9620,-15.37,-1.29,-8.22,-1.37,-0.54,2.28
2022-12-08 20:19:35.9720,-14.31,-3.11,-8.58,-1.21,-0.92,2.41
2022-12-08 20:19:35.9810,-11.4,-4.8,-6.08,-0.54,-2.09,2.05
2022-12-08 20:19:35.9920,-0.65,-5.08,7.72,-1.08,-4.35,0.49
2022-12-08 20:19:36.0020,21.3,-7.36,19.12,-1.12,-0.82,-0.95
2022-12-08 20:19:36.0110,24.42,-13.83,-16.77,-0.77,1.33,1.23
2022-12-08 20:19:36.0210,6.12,-5.54,-21.2,-0.46,0.6,4.4
2022-12-08 20:19:36.0310,-7.82,-7.97,1.07,-0.93,-0.07,4.97
2022-12-08 20:19:36.0410,-11.19,-6.73,4.37,-0.62,0.09,3.42
2022-12-08 20:19:36.0510,-4.47,-0.05,0.05,-0.41,0.06,2.09
2022-12-08 20:19:36.0610,-2.24,4.04,1.72,-0.62,0.56,2.05
2022-12-08 20:19:36.0710,-8.89,-1.34,-3.26,-0.78,0.75,2.19
2022-12-08 20:19:36.0810,-8.89,-1.34,-3.26,-0.71,-0.05,1.86
2022-12-08 20:19:36.0910,-4.78,-6.3,-0.43,-0.66,-0.34,1.56
2022-12-08 20:19:36.1010,-2.39,-2.71,-2.51,-0.62,-0.21,1.4
2022-12-08 20:19:36.1110,-2.39,-2.71,-2.51,-0.53,-0.3,1.3
2022-12-08 20:19:36.1210,-0.62,-0.16,-1.0,-0.49,-0.25,1.13
2022-12-08 20:19:36.1310,-0.62,-0.16,-1.0,-0.46,-0.18,0.97
2022-12-08 20:19:36.1410,-0.34,-0.62,-0.58,-0.42,-0.14,0.88
2022-12-08 20:19:36.1510,-0.13,-1.17,-0.75,-0.35,-0.1,0.82
2022-12-08 20:19:36.1610,-0.58,-1.33,-1.34,-0.3,-0.14,0.69
2022-12-08 20:19:36.1700,-1.91,-0.65,-0.63,-0.25,-0.2,0.52
2022-12-08 20:19:36.1800,-1.91,-0.65,-0.63,-0.23,-0.14,0.42
2022-12-08 20:19:36.1910,-1.1,-0.07,-0.21,-0.21,0.05,0.38
2022-12-08 20:19:36.2000,1.18,-0.17,-0.97,-0.18,0.26,0.39
2022-12-08 20:19:36.2100,1.18,-0.17,-0.97,-0.15,0.35,0.4
2022-12-08 20:19:36.2200,-0.68,-0.44,-0.18,-0.12,0.28,0.36
2022-12-08 20:19:36.2300,-0.68,-0.44,-0.18,-0.09,0.17,0.28
2022-12-08 20:19:36.2400,-1.15,-0.56,-0.16,-0.07,0.05,0.23
2022-12-08 20:19:36.2500,-0.85,-0.39,-0.14,-0.07,0.02,0.22
2022-12-08 20:19:36.2600,-0.27,-0.08,-0.1,-0.09,0.09,0.22
2022-12-08 20:19:36.2700,0.27,0.08,-0.32,-0.1,0.18,0.23
2022-12-08 20:19:36.2800,0.57,0.08,-0.1,-0.13,0.28,0.25
2022-12-08 20:19:36.2900,0.4,0.23,0.08,-0.15,0.3,0.26
2022-12-08 20:19:36.3000,0.05,0.48,0.34,-0.18,0.27,0.26
2022-12-08 20:19:36.3100,-0.29,0.56,0.49,-0.19,0.22,0.25
2022-12-08 20:19:36.3200,-0.36,0.43,0.37,-0.21,0.22,0.24
2022-12-08 20:19:36.3300,-0.22,0.33,0.17,-0.23,0.24,0.27
2022-12-08 20:19:36.3400,0.05,0.39,0.22,-0.26,0.27,0.33
2022-12-08 20:19:36.3500,0.53,0.37,0.21,-0.29,0.28,0.41
2022-12-08 20:19:36.3600,0.53,0.37,0.21,-0.33,0.28,0.49
2022-12-08 20:19:36.3700,0.57,0.37,0.46,-0.37,0.28,0.57
2022-12-08 20:19:36.3800,0.72,0.35,0.31,-0.4,0.27,0.66
2022-12-08 20:19:36.3900,1.0,0.36,-0.03,-0.45,0.2,0.76
2022-12-08 20:19:36.3990,1.22,0.32,-0.21,-0.49,0.18,0.86
2022-12-08 20:19:36.4090,1.27,0.18,-0.25,-0.55,0.14,0.98
2022-12-08 20:19:36.4190,1.05,0.09,0.6,-0.62,0.06,1.11
2022-12-08 20:19:36.4290,1.05,0.09,0.6,-0.71,0.01,1.22
2022-12-08 20:19:36.4390,1.21,-0.32,1.16,-0.78,0.02,1.33
2022-12-08 20:19:36.4490,1.21,-0.32,1.16,-0.86,0.06,1.46
2022-12-08 20:19:36.4590,1.32,-0.34,0.86,-0.95,0.03,1.57
2022-12-08 20:19:36.4690,1.36,-0.41,0.46,-1.03,-0.02,1.64
2022-12-08 20:19:36.4790,1.29,-0.87,0.47,-1.1,-0.06,1.75
2022-12-08 20:19:36.4890,1.2,-1.57,0.81,-1.16,-0.06,1.85
2022-12-08 20:19:36.4990,1.47,-2.2,0.79,-1.25,-0.03,1.98
2022-12-08 20:19:36.5090,2.11,-2.42,0.29,-1.33,-0.03,2.12
2022-12-08 20:19:36.5190,2.94,-3.29,1.25,-1.41,0.04,2.25
2022-12-08 20:19:36.5290,2.94,-3.29,1.25,-1.49,0.2,2.41
2022-12-08 20:19:36.5390,3.19,-4.23,2.980762020349503,-1.6,0.37,2.6
2022-12-08 20:19:36.5490,3.84,-4.89,2.98,-1.71,0.57,2.76
2022-12-08 20:19:36.5590,4.73,-5.69,3.53,-1.84,0.84,2.9
2022-12-08 20:19:36.5690,5.64,-6.93,3.74,-1.96,1.01,3.05
2022-12-08 20:19:36.5780,6.55,-8.08,4.34,-2.05,1.24,3.17
2022-12-08 20:19:36.5880,7.09,-9.83,4.710304090976716,-2.14,1.65,3.33
2022-12-08 20:19:36.5990,7.55,-11.69,4.71,-2.2,1.92,3.57
2022-12-08 20:19:36.6090,7.96,-12.82,5.14,-2.33,2.11,3.68
2022-12-08 20:19:36.6190,8.78,-14.02,5.44,-2.45,2.19,3.66
2022-12-08 20:19:36.6290,10.31,-13.79,5.14,-2.49,2.35,3.51
2022-12-08 20:19:36.6380,11.12,-12.83,4.36,-2.5,2.42,3.22
2022-12-08 20:19:36.6480,10.92,-11.85,5.37,-2.26,2.68,2.95
2022-12-08 20:19:36.6580,10.1,-9.37,6.54,-1.9,2.7,2.74
2022-12-08 20:19:36.6680,8.18,-6.12,7.63,-1.56,2.28,2.34
2022-12-08 20:19:36.6780,6.13,-4.78,9.79,-1.31,1.82,1.69
2022-12-08 20:19:36.6880,4.82,-4.7,10.26,-1.07,1.44,0.93
2022-12-08 20:19:36.6980,4.22,-3.81,8.99,-0.67,1.4,0.19
2022-12-08 20:19:36.7080,5.03,-3.01,6.9,-0.4,0.85,0.1
2022-12-08 20:19:36.7180,3.23,-0.45,10.13,-0.12,0.74,0.01
2022-12-08 20:19:36.7270,1.75,0.73,6.21,0.28,0.05,-0.44
2022-12-08 20:19:36.7380,5.2,0.93,7.23,0.59,-0.61,-0.95
2022-12-08 20:19:36.7470,9.27,1.87,9.38,0.85,-0.53,-1.31
2022-12-08 20:19:36.7570,11.27,3.01,6.36,1.07,-0.04,-1.54
2022-12-08 20:19:36.7680,10.27,3.54,3.55,1.31,0.19,-1.78
2022-12-08 20:19:36.7770,10.27,3.54,3.55,1.57,0.02,-2.07
2022-12-08 20:19:36.7870,8.1,2.93,4.28,1.82,-0.33,-2.35
2022-12-08 20:19:36.7970,5.99,2.36,4.69,2.06,-0.69,-2.58
2022-12-08 20:19:36.8070,4.21,2.18,4.89,2.29,-1.04,-2.77
2022-12-08 20:19:36.8170,4.21,2.18,4.89,2.5,-1.3,-3.0
2022-12-08 20:19:36.8270,4.29,2.18,4.85,2.67,-1.44,-3.29
2022-12-08 20:19:36.8370,4.69,2.09,4.57,2.79,-1.4,-3.6
2022-12-08 20:19:36.8470,5.17,1.91,4.03,2.87,-1.2,-3.88
2022-12-08 20:19:36.8570,5.54,1.56,3.18,2.94,-0.91,-4.16
2022-12-08 20:19:36.8670,5.74,0.93,2.24,3.01,-0.54,-4.45
2022-12-08 20:19:36.8770,5.56,0.02,1.37,3.1,-0.18,-4.71
2022-12-08 20:19:36.8870,4.87,-0.9,0.79,3.21,-0.02,-4.86
2022-12-08 20:19:36.8970,3.73,-1.68,0.57,3.34,0.02,-4.9
2022-12-08 20:19:36.9070,2.11,-2.45,0.09,3.45,-0.12,-4.91
2022-12-08 20:19:36.9170,0.32,-3.31,-0.48,3.53,-0.38,-4.98
2022-12-08 20:19:36.9270,-0.99,-4.47,-0.85,3.59,-0.61,-5.08
2022-12-08 20:19:36.9370,-1.76,-5.64,-1.13,3.62,-0.76,-5.14
2022-12-08 20:19:36.9460,-2.49,-6.79,-1.18,3.63,-0.83,-5.16
2022-12-08 20:19:36.9560,-3.5,-8.34,-1.23,3.63,-0.87,-5.15
2022-12-08 20:19:36.9670,-4.93,-9.88,-1.54,3.63,-0.96,-5.09
2022-12-08 20:19:36.9770,-7.07,-10.99,-2.05,3.56,-1.1,-5.01
2022-12-08 20:19:36.9860,-9.27,-11.63,-2.79,3.41,-1.24,-4.9
2022-12-08 20:19:36.9970,-10.69,-12.21,-4.15,3.19,-1.3,-4.69
2022-12-08 20:19:37.0070,-11.39,-12.59,-6.09,2.87,-1.21,-4.29
2022-12-08 20:19:37.0170,-12.85,-11.47,-8.79,2.51,-1.0,-3.71
2022-12-08 20:19:37.0260,-12.85,-11.47,-8.79,2.13,-0.7,-3.04
2022-12-08 20:19:37.0360,-14.4,-9.3,-8.68,1.72,-0.29,-2.41
2022-12-08 20:19:37.0460,-15.89,-6.59,-9.07,1.23,0.21,-1.84
2022-12-08 20:19:37.0560,-16.63,-4.67,-10.81,0.7,0.6,-1.17
2022-12-08 20:19:37.0660,-18.4,-0.87,-12.56,0.19,0.64,-0.29
2022-12-08 20:19:37.0760,-18.4,-0.87,-12.56,-0.25,0.36,0.47
2022-12-08 20:19:37.0860,-19.61,-0.27,-11.06,-0.6,0.05,0.9
2022-12-08 20:19:37.0960,-18.5,-1.29,-9.25,-0.87,-0.13,1.24
2022-12-08 20:19:37.1060,-12.2,-2.47,-7.81,-1.05,-0.08,1.61
2022-12-08 20:19:37.1160,-10.62,-2.37,-7.81,-1.22,-0.09,2.17
2022-12-08 20:19:37.1260,-10.62,-2.37,-7.81,-1.2,-0.24,2.57
2022-12-08 20:19:37.1360,-10.98,-3.57,-7.11,-0.75,-0.71,2.45
2022-12-08 20:19:37.1460,-8.26,-4.78,-1.39,-0.14,-2.38,2.13
2022-12-08 20:19:37.1560,1.64,-2.13,18.83,-0.83,-3.33,1.12
2022-12-08 20:19:37.1670,21.49,-3.79,17.91,-1.23,0.29,0.54
2022-12-08 20:19:37.1750,25.17,-10.27,-21.89,-0.21,1.95,2.63
2022-12-08 20:19:37.1850,4.53,-6.71,-18.94,-0.61,1.52,4.63
2022-12-08 20:19:37.1950,-9.42,-11.31,1.59,-0.9,1.08,4.48
2022-12-08 20:19:37.2050,-13.27,-7.62,1.87,-0.61,0.23,2.99
2022-12-08 20:19:37.2150,-8.87,0.03,3.03,-0.8,0.1,2.28
2022-12-08 20:19:37.2250,-10.57,2.52,-0.3,-0.79,-0.06,2.3
2022-12-08 20:19:37.2350,-13.21,-1.34,-4.86,-0.71,-1.2,2.11
2022-12-08 20:19:37.2450,-5.81,-4.58,2.09,-0.76,-1.14,1.7
2022-12-08 20:19:37.2550,0.02,-4.27,-0.56,-0.64,-0.33,1.36
2022-12-08 20:19:37.2650,1.21,-1.0,-3.08,-0.54,0.13,1.3
2022-12-08 20:19:37.2750,1.21,-1.0,-3.08,-0.49,0.21,1.27
2022-12-08 20:19:37.2850,-1.11,-0.05,-1.56,-0.43,0.22,1.0
2022-12-08 20:19:37.2950,-2.08,-0.96,-0.96,-0.38,0.16,0.82
2022-12-08 20:19:37.3050,-1.87,-0.97,-0.54,-0.32,0.08,0.75
2022-12-08 20:19:37.3150,-0.89,-0.94,-0.66,-0.28,0.13,0.68
2022-12-08 20:19:37.3250,-0.22,-1.15,-0.64,-0.25,0.2,0.59
2022-12-08 20:19:37.3350,-0.42,-0.88,-0.52,-0.23,0.14,0.47
2022-12-08 20:19:37.3450,-1.19,-0.63,0.09,-0.22,0.06,0.35
2022-12-08 20:19:37.3550,-1.19,-0.63,0.09,-0.21,0.1,0.28
2022-12-08 20:19:37.3640,-0.62,-0.52,0.06,-0.19,0.17,0.26
2022-12-08 20:19:37.3740,0.2,-0.24,-0.22,-0.18,0.28,0.29
2022-12-08 20:19:37.3840,0.59,-0.02,-0.28,-0.17,0.38,0.3
2022-12-08 20:19:37.3940,0.46,-0.03,-0.28,-0.15,0.38,0.3
2022-12-08 20:19:37.4040,0.09,-0.08,-0.23,-0.15,0.32,0.3
2022-12-08 20:19:37.4140,-0.15,-0.12,0.1,-0.17,0.25,0.32
2022-12-08 20:19:37.4240,-0.1,-0.03,0.3,-0.18,0.24,0.35
2022-12-08 20:19:37.4340,0.1,0.11,0.36,-0.21,0.25,0.37
2022-12-08 20:19:37.4440,0.38,0.37,0.45,-0.24,0.28,0.4
2022-12-08 20:19:37.4540,0.38,0.37,0.45,-0.26,0.34,0.42
2022-12-08 20:19:37.4640,0.33,0.45,0.48,-0.29,0.4,0.43
2022-12-08 20:19:37.4740,0.24,0.44,0.16,-0.31,0.43,0.46
2022-12-08 20:19:37.4840,0.11,0.39,0.15,-0.33,0.41,0.5
2022-12-08 20:19:37.4940,0.11,0.39,0.15,-0.35,0.35,0.54
2022-12-08 20:19:37.5040,0.11,0.41,0.12,-0.37,0.27,0.6
2022-12-08 20:19:37.5140,0.18,0.37,0.02,-0.4,0.21,0.67
2022-12-08 20:19:37.5240,0.35,0.36,0.03,-0.44,0.16,0.76
2022-12-08 20:19:37.5340,0.49,0.5,0.08,-0.49,0.13,0.84
2022-12-08 20:19:37.5440,0.61,0.55,0.24,-0.54,0.07,0.93
2022-12-08 20:19:37.5540,0.79,0.52,0.6010814899206162,-0.58,0.03,1.01
2022-12-08 20:19:37.5630,0.89,0.33,0.6,-0.62,0.03,1.07
2022-12-08 20:19:37.5740,0.79,-0.51,0.62,-0.67,0.01,1.13
2022-12-08 20:19:37.5830,0.79,-0.51,0.62,-0.68,-0.02,1.21
2022-12-08 20:19:37.5930,0.76,-0.6,0.58,-0.69,-0.09,1.32
2022-12-08 20:19:37.6030,0.4245850396156311,-0.21,0.85,-0.72,-0.17,1.41
2022-12-08 20:19:37.6130,0.42,-0.21,0.85,-0.78,-0.23,1.44
2022-12-08 20:19:37.6230,0.36,-0.35,0.54,-0.84,-0.27,1.48
2022-12-08 20:19:37.6330,0.68,-0.66,0.48,-0.91,-0.23,1.55
2022-12-08 20:19:37.6430,1.22,-1.21,0.21,-0.99,-0.17,1.66
2022-12-08 20:19:37.6530,1.77,-1.91,0.08,-1.04,-0.09,1.78
2022-12-08 20:19:37.6630,2.19,-2.42,0.12,-1.11,-0.07,1.91
2022-12-08 20:19:37.6730,2.55,-2.77,0.36,-1.18,-0.07,2.07
2022-12-08 20:19:37.6830,2.8,-3.07,0.74,-1.25,-0.02,2.23
2022-12-08 20:19:37.6930,3.19,-3.53,1.3,-1.32,0.12,2.37
2022-12-08 20:19:37.7030,3.8,-4.1,1.96,-1.39,0.35,2.51
2022-12-08 20:19:37.7130,4.59,-4.72,2.47,-1.46,0.59,2.63
2022-12-08 20:19:37.7230,5.34,-5.37,2.73,-1.53,0.84,2.77
2022-12-08 20:19:37.7320,6.01,-6.01,3.1,-1.61,1.12,2.91
2022-12-08 20:19:37.7430,6.6,-6.74,3.24,-1.74,1.32,3.0
2022-12-08 20:19:37.7530,8.72,-9.53,3.96,-1.89,1.38,3.04
2022-12-08 20:19:37.7630,8.72,-9.53,3.96,-2.06,1.53,3.09
2022-12-08 20:19:37.7730,9.93,-11.91,4.61,-2.18,1.88,3.25
2022-12-08 20:19:37.7830,10.94,-13.22,4.81,-2.27,2.29,3.47
2022-12-08 20:19:37.7930,10.6,-13.56,4.85,-2.4,2.38,3.54
2022-12-08 20:19:37.8030,9.32,-13.28,6.12,-2.55,2.4,3.38
2022-12-08 20:19:37.8120,8.9,-11.92,6.45,-2.47,2.17,3.02
2022-12-08 20:19:37.8220,9.56,-10.05,7.8,-2.05,2.21,2.72
2022-12-08 20:19:37.8320,9.07,-7.97,9.43,-1.79,2.02,2.4
2022-12-08 20:19:37.8420,6.94,-6.42,10.5,-1.37,1.7,1.86
2022-12-08 20:19:37.8520,6.08,-5.85,10.5,-1.13,1.33,1.29
2022-12-08 20:19:37.8620,4.25,-3.38,9.36,-0.88,1.02,0.77
2022-12-08 20:19:37.8720,4.25,-3.38,8.7,-0.53,0.59,0.34
2022-12-08 20:19:37.8820,4.36,-2.62,8.7,-0.42,0.37,0.11
2022-12-08 20:19:37.8920,2.76,-1.64,7.49,-0.1,-0.0,-0.27
2022-12-08 20:19:37.9020,3.71,-0.98,4.35,0.18,-0.9,-0.73
2022-12-08 20:19:37.9120,7.68,0.58,7.72,0.39,-1.23,-1.15
2022-12-08 20:19:37.9220,10.61,2.07,7.01,0.59,-0.91,-1.5
2022-12-08 20:19:37.9320,11.64,2.82,4.12,0.79,-0.6,-1.77
2022-12-08 20:19:37.9420,10.9,2.93,3.34,1.01,-0.65,-2.03
2022-12-08 20:19:37.9510,8.82,2.57,4.2,1.26,-1.01,-2.34
2022-12-08 20:19:37.9610,4.93,2.26,5.7,1.5,-1.5,-2.65
2022-12-08 20:19:37.9720,4.93,2.26,5.7,1.7,-1.88,-2.95
2022-12-08 20:19:37.9810,4.59,2.48,5.84,1.87,-2.02,-3.29
2022-12-08 20:19:37.9910,5.24,2.68,5.36,2.03,-1.92,-3.64
2022-12-08 20:19:38.0010,5.92,2.8,4.71,2.16,-1.67,-3.96
2022-12-08 20:19:38.0110,5.53,2.66,4.05,2.28,-1.39,-4.25
2022-12-08 20:19:38.0210,5.1,1.94,3.8,2.39,-1.13,-4.55
2022-12-08 20:19:38.0310,5.1,1.94,3.8,2.5,-0.89,-4.82
2022-12-08 20:19:38.0410,4.89,1.2,3.4,2.62,-0.58,-5.1
2022-12-08 20:19:38.0510,4.76,0.4,2.68,2.77,-0.31,-5.35
2022-12-08 20:19:38.0610,4.27,-0.79,1.92,2.96,-0.16,-5.53
2022-12-08 20:19:38.0710,2.99,-2.05,1.38,3.16,-0.25,-5.55
2022-12-08 20:19:38.0810,0.86,-3.06,1.12,3.34,-0.49,-5.49
2022-12-08 20:19:38.0910,-1.66,-4.07,0.68,3.49,-0.98,-5.46
2022-12-08 20:19:38.1010,-3.92,-5.32,0.4,3.55,-1.53,-5.47
2022-12-08 20:19:38.1110,-7.37,-8.26,-0.23,3.54,-2.01,-5.48
2022-12-08 20:19:38.1210,-7.37,-8.26,-0.23,3.48,-2.36,-5.5
2022-12-08 20:19:38.1310,-8.65,-10.13,-0.61,3.41,-2.53,-5.47
2022-12-08 20:19:38.1410,-11.03,-13.15,-1.51,3.24,-2.47,-5.36
2022-12-08 20:19:38.1510,-11.03,-13.15,-1.51,2.93,-2.12,-5.16
2022-12-08 20:19:38.1610,-13.15812036037445,-14.83,-6.58,2.54,-1.5,-4.83
2022-12-08 20:19:38.1710,-13.16,-14.83,-6.58,2.13,-0.87,-4.34
2022-12-08 20:19:38.1800,-14.67,-11.07,-9.01,1.74,-0.44,-3.69
2022-12-08 20:19:38.1900,-16.9,-11.07,-9.01,1.4,0.01,-2.91
2022-12-08 20:19:38.2000,-20.41,-4.11,-6.28,1.1,0.51,-2.14
2022-12-08 20:19:38.2100,-19.92,-4.01,-6.54,0.77,1.04,-1.47
2022-12-08 20:19:38.2200,-19.92,-4.01,-6.54,0.4,1.6,-0.84
2022-12-08 20:19:38.2300,-18.3,-3.88,-8.55,-0.0,1.9,-0.14
2022-12-08 20:19:38.2400,-17.73,-2.52,-9.97,-0.34,1.65,0.55
2022-12-08 20:19:38.2500,-18.41,-0.98,-9.71,-0.72,0.93,1.29
2022-12-08 20:19:38.2600,-19.07,-0.06,-8.64,-0.96,0.34,1.75
2022-12-08 20:19:38.2700,-19.38,-1.02,-9.56,-1.08,-0.18,1.97
2022-12-08 20:19:38.2800,-16.39,-4.15,-8.58,-1.02,-0.67,2.61
2022-12-08 20:19:38.2900,-14.06,-3.9,-6.22,-0.22,-1.66,2.55
2022-12-08 20:19:38.3000,-5.71,-5.71,2.29,-0.83,-5.35,1.34
2022-12-08 20:19:38.3100,29.72,-12.47,-9.34,-0.75,-2.25,0.83
2022-12-08 20:19:38.3200,29.72,-12.47,-9.34,-0.26,2.25,3.01
2022-12-08 20:19:38.3290,9.31,-7.42,-21.81,-0.7,3.15,5.42
2022-12-08 20:19:38.3400,-11.17,-9.64,-0.73,-0.88,1.14,5.77
2022-12-08 20:19:38.3500,-18.36,-6.53,6.39,-0.86,-0.4,4.19
2022-12-08 20:19:38.3600,-13.54,-0.66,2.75,-0.63,-0.61,2.39
2022-12-08 20:19:38.3690,-6.65,1.76,-0.92,-0.64,-0.93,1.74
2022-12-08 20:19:38.3790,-6.65,1.76,-0.92,-0.66,-0.25,1.68
2022-12-08 20:19:38.3890,-1.19,0.25,-0.82,-0.6,0.06,1.67
2022-12-08 20:19:38.3990,2.47,-3.0,-2.46,-0.42,0.29,1.69
2022-12-08 20:19:38.4090,3.45,-4.71,-3.16,-0.35,0.56,1.71
2022-12-08 20:19:38.4190,-4.71,-1.45,0.25,-0.34,0.34,1.31
2022-12-08 20:19:38.4290,-4.32,-0.64,0.3,-0.26,-0.14,0.8
2022-12-08 20:19:38.4390,-4.32,-0.64,0.3,-0.21,-0.46,0.53
2022-12-08 20:19:38.4490,-0.45,-1.4,-1.35,-0.17,-0.37,0.46
2022-12-08 20:19:38.4590,-0.45,-1.4,-1.190049887895584,-0.15,-0.13,0.45
2022-12-08 20:19:38.4690,0.49,-1.57,-1.2,-0.13,0.05,0.4
2022-12-08 20:19:38.4790,0.22,-0.91,-0.93,-0.13,0.14,0.32
2022-12-08 20:19:38.4890,-0.35,-0.25,-0.1,-0.15,0.23,0.26
2022-12-08 20:19:38.4990,0.59,0.05,0.71,-0.17,0.36,0.29
2022-12-08 20:19:38.5090,0.59,0.05,0.71,-0.17,0.44,0.33
2022-12-08 20:19:38.5190,0.89,-0.32,0.023599362373352053,-0.17,0.38,0.33
2022-12-08 20:19:38.5290,0.22,-0.52,0.02,-0.17,0.3,0.28
2022-12-08 20:19:38.5380,-0.62,-0.35,0.27,-0.16,0.22,0.27
2022-12-08 20:19:38.5480,-0.6,-0.1,0.39,-0.16,0.18,0.3
2022-12-08 20:19:38.5590,0.05,0.13,0.04,-0.16,0.21,0.35
2022-12-08 20:19:38.5680,0.6,0.23,-0.1,-0.17,0.28,0.4
2022-12-08 20:19:38.5780,0.74,0.3,-0.06,-0.19,0.35,0.44
2022-12-08 20:19:38.5880,0.68,0.32,-0.12,-0.21,0.37,0.47
2022-12-08 20:19:38.5980,0.47,0.29,0.13,-0.22,0.37,0.5
2022-12-08 20:19:38.6080,0.1,0.35,0.35,-0.23,0.35,0.52
2022-12-08 20:19:38.6180,-0.16,0.5988396674394608,0.18680699184536934,-0.24,0.3,0.54
2022-12-08 20:19:38.6280,-0.3,0.59,0.18,-0.27,0.23,0.56
2022-12-08 20:19:38.6380,-0.33,0.75,0.0,-0.29,0.19,0.57
2022-12-08 20:19:38.6480,-0.04,0.6,-0.22,-0.32,0.2,0.62
2022-12-08 20:19:38.6580,0.33,0.37,0.04,-0.34,0.23,0.7
2022-12-08 20:19:38.6680,0.59,0.35,0.09,-0.37,0.24,0.8
2022-12-08 20:19:38.6780,0.76,0.4,-0.18,-0.4,0.18,0.9
2022-12-08 20:19:38.6880,0.55,0.69,-0.22,-0.44,0.07,0.97
2022-12-08 20:19:38.6980,0.55,0.69,-0.22,-0.46,-0.08,1.02
2022-12-08 20:19:38.7080,0.47,0.57,-0.16,-0.48,-0.17,1.06
2022-12-08 20:19:38.7180,0.28,-0.72,0.33,-0.51,-0.23,1.1
2022-12-08 20:19:38.7280,0.28,-0.72,0.33,-0.54,-0.19,1.13
2022-12-08 20:19:38.7370,0.57,-1.35,0.44,-0.58,-0.09,1.2
2022-12-08 20:19:38.7470,1.14,-1.47,0.56,-0.62,0.02,1.3
2022-12-08 20:19:38.7570,1.71,-1.2,0.57,-0.68,0.08,1.42
2022-12-08 20:19:38.7670,1.94,-1.01,0.24,-0.75,0.04,1.51
2022-12-08 20:19:38.7770,1.79,-1.17,0.26,-0.83,-0.06,1.62
2022-12-08 20:19:38.7870,1.49,-1.62,0.61,-0.9,-0.14,1.72
2022-12-08 20:19:38.7970,1.67,-2.2,0.89,-0.97,-0.12,1.83
2022-12-08 20:19:38.8070,2.29,-2.56,1.08,-1.05,-0.05,1.97
2022-12-08 20:19:38.8170,2.86,-2.72,1.19,-1.13,0.05,2.09
2022-12-08 20:19:38.8270,3.22,-3.07,1.5,-1.21,0.16,2.23
2022-12-08 20:19:38.8370,3.58,-3.6,2.04,-1.3,0.3,2.37
2022-12-08 20:19:38.8470,4.09,-4.34,2.69,-1.39,0.48,2.51
2022-12-08 20:19:38.8570,4.96,-4.93,3.0,-1.47,0.71,2.66
2022-12-08 20:19:38.8670,7.01,-6.29,2.24,-1.61,0.83,2.78
2022-12-08 20:19:38.8770,7.01,-6.29,2.24,-1.77,0.7,2.82
2022-12-08 20:19:38.8870,8.03,-8.42,2.91,-1.91,0.82,2.88
2022-12-08 20:19:38.8970,9.22,-11.08,3.44,-2.0,1.19,3.08
2022-12-08 20:19:38.9080,11.16,-12.05,3.59,-2.06,1.66,3.32
2022-12-08 20:19:38.9170,12.82,-11.51,3.48,-2.2,2.22,3.46
2022-12-08 20:19:38.9270,12.15,-10.96,2.39,-2.25,2.45,3.47
2022-12-08 20:19:38.9360,10.28,-10.94,3.69,-2.23,2.37,3.47
2022-12-08 20:19:38.9460,7.25,-9.38,8.29,-2.16,2.25,3.35
2022-12-08 20:19:38.9560,7.72,-8.71,9.05,-2.04,2.13,2.94
2022-12-08 20:19:38.9660,7.72,-8.71,9.05,-1.8,2.2,2.36
2022-12-08 20:19:38.9760,8.88,-7.6,7.93,-1.46,2.36,1.85
2022-12-08 20:19:38.9860,8.01,-4.25,9.91,-1.2,2.18,1.36
2022-12-08 20:19:38.9960,8.01,-4.25,9.91,-1.06,1.99,0.91
2022-12-08 20:19:39.0060,6.55,-2.5,9.97,-0.76,1.96,0.38
2022-12-08 20:19:39.0160,3.31,-1.64,7.47,-0.48,1.92,0.07
2022-12-08 20:19:39.0260,3.31,-1.64,7.47,-0.31,1.56,-0.12
2022-12-08 20:19:39.0360,-0.23,-1.54,6.58,0.02,0.58,-0.44
2022-12-08 20:19:39.0460,0.18,-0.47,6.15,0.24,-0.56,-0.83
2022-12-08 20:19:39.0560,4.31,1.58,8.69,0.48,-1.07,-1.24
2022-12-08 20:19:39.0660,8.14,2.78,7.3,0.68,-0.96,-1.61
2022-12-08 20:19:39.0760,10.12,2.96,4.83,0.87,-0.64,-1.9
2022-12-08 20:19:39.0860,10.57,2.85,3.47,1.06,-0.46,-2.15
2022-12-08 20:19:39.0960,9.61,2.54,3.33,1.28,-0.61,-2.46
2022-12-08 20:19:39.1060,7.81,2.21,3.97,1.53,-0.99,-2.78
2022-12-08 20:19:39.1160,5.91,2.19,4.5,1.78,-1.5,-3.05
2022-12-08 20:19:39.1260,3.8,2.19,5.35,1.99,-1.95,-3.32
2022-12-08 20:19:39.1350,3.8,2.19,5.35,2.15,-2.18,-3.63
2022-12-08 20:19:39.1450,4.43,1.77,4.72,2.28,-2.05,-3.95
2022-12-08 20:19:39.1550,4.43,1.77,4.72,2.42,-1.77,-4.22
2022-12-08 20:19:39.1650,5.13,1.64,4.29,2.54,-1.39,-4.45
2022-12-08 20:19:39.1750,5.65,1.32,3.77,2.65,-0.89,-4.71
2022-12-08 20:19:39.1850,5.8,0.31,2.63,2.76,-0.34,-5.0
2022-12-08 20:19:39.1950,5.39,-1.11,1.59,2.91,0.09,-5.22
2022-12-08 20:19:39.2050,4.31,-2.32,0.62,3.08,0.3,-5.32
2022-12-08 20:19:39.2150,2.78,-3.3,-0.12,3.23,0.36,-5.24
2022-12-08 20:19:39.2250,0.91,-3.98,-0.96,3.31,0.32,-5.18
2022-12-08 20:19:39.2350,-0.56,-4.76,-2.68,3.37,0.25,-5.23
2022-12-08 20:19:39.2450,-1.27,-5.82,-2.68,3.43,0.14,-5.26
2022-12-08 20:19:39.2550,-2.51,-6.57,-3.16,3.49,-0.01,-5.21
2022-12-08 20:19:39.2650,-4.38,-7.83,-3.4,3.52,-0.19,-5.13
2022-12-08 20:19:39.2750,-8.24,-11.54,-3.86,3.51,-0.37,-4.99
2022-12-08 20:19:39.2860,-8.24,-11.54,-3.86,3.45,-0.59,-4.79
2022-12-08 20:19:39.2950,-10.61,-12.86,-4.73,3.3,-0.86,-4.58
2022-12-08 20:19:39.3050,-12.93,-13.45,-6.03,3.07,-1.16,-4.3
2022-12-08 20:19:39.3150,-15.03,-13.23,-7.51,2.76,-1.41,-3.87
2022-12-08 20:19:39.3240,-17.2,-12.25,-9.05,2.38,-1.63,-3.23
2022-12-08 20:19:39.3340,-19.43,-10.37,-10.03,1.94,-1.78,-2.47
2022-12-08 20:19:39.3440,-21.17,-7.44,-10.35,1.45,-1.67,-1.69
2022-12-08 20:19:39.3540,-21.0,-2.57,-10.73,0.94,-1.45,-0.92
2022-12-08 20:19:39.3640,-21.0,-2.57,-10.73,0.43,-1.05,-0.24
2022-12-08 20:19:39.3740,-20.09,-2.54,-11.53,-0.06,-0.42,0.38
2022-12-08 20:19:39.3840,-19.05,-2.92,-12.26,-0.6,-0.04,1.21
2022-12-08 20:19:39.3940,-19.69,-1.65,-11.86,-0.96,0.08,1.77
2022-12-08 20:19:39.4040,-19.82,-2.35,-10.43,-1.17,0.46,2.48
2022-12-08 20:19:39.4140,-19.25,-3.58,-8.53,-0.92,-1.09,2.45
2022-12-08 20:19:39.4240,-10.58,-16.47,23.01,-1.21,-3.54,1.28
2022-12-08 20:19:39.4340,12.26,-16.47,23.01,-0.92,-0.1,2.13
2022-12-08 20:19:39.4440,18.36,-12.99,-6.29,-1.09,2.2,4.66
2022-12-08 20:19:39.4540,-0.76,-3.76,-12.31,-0.96,1.11,5.64
2022-12-08 20:19:39.4640,-12.05,-3.93,-0.67,-0.89,0.13,3.98
2022-12-08 20:19:39.4740,-6.23,-2.03,3.09,-0.29,-0.77,2.47
2022-12-08 20:19:39.4840,0.43,6.34,0.26,-0.46,-0.19,2.08
2022-12-08 20:19:39.4940,-5.64,7.47,-2.24,-0.21,0.72,2.23
2022-12-08 20:19:39.5040,-14.72,-3.18,-9.37,-0.31,-0.99,1.86
2022-12-08 20:19:39.5140,-6.84,-10.19,4.68,-0.32,-0.72,1.52
2022-12-08 20:19:39.5240,-1.18,-6.76,-1.51,-0.27,-0.12,1.46
2022-12-08 20:19:39.5330,0.36,-1.52,-3.26,-0.26,0.03,1.4
2022-12-08 20:19:39.5430,1.05,1.21,-0.5255978827178478,-0.25,-0.0,1.17
2022-12-08 20:19:39.5540,-2.66,-0.78,-0.02,-0.25,-0.15,0.94
2022-12-08 20:19:39.5630,-1.75,-1.52,-0.08,-0.25,-0.28,0.79
2022-12-08 20:19:39.5730,-1.75,-1.52,-0.08,-0.23,-0.18,0.74
2022-12-08 20:19:39.5830,-0.11,-1.15,-0.51,-0.2,-0.04,0.73
2022-12-08 20:19:39.5930,-0.1,-0.29,-0.03,-0.18,0.05,0.64
2022-12-08 20:19:39.6030,-1.22,-0.43,-0.15,-0.16,0.03,0.5
2022-12-08 20:19:39.6130,-1.22,-0.43,-0.15,-0.13,-0.05,0.37
2022-12-08 20:19:39.6230,-1.43,-0.61,-0.36,-0.1,-0.06,0.3
2022-12-08 20:19:39.6330,-0.57,-0.67,-0.41,-0.09,0.05,0.29
2022-12-08 20:19:39.6430,0.5,-0.66,-0.47,-0.08,0.23,0.3
2022-12-08 20:19:39.6530,1.12,-0.69,-0.31,-0.07,0.38,0.32
2022-12-08 20:19:39.6630,0.83,-0.51,-0.16,-0.06,0.43,0.31
2022-12-08 20:19:39.6730,0.15,-0.37,-0.18,-0.04,0.42,0.29
2022-12-08 20:19:39.6830,-0.18,-0.3,-0.17,-0.03,0.39,0.28
2022-12-08 20:19:39.6930,-0.08,-0.16,0.0,-0.02,0.39,0.31
2022-12-08 20:19:39.7030,0.28,-0.06,-0.18,-0.04,0.39,0.33
2022-12-08 20:19:39.7130,0.56,-0.15,-0.016630212217569353,-0.05,0.4,0.36
2022-12-08 20:19:39.7230,0.59,-0.18,-0.02,-0.07,0.4,0.4
2022-12-08 20:19:39.7330,0.38,0.02,0.23,-0.09,0.41,0.43
2022-12-08 20:19:39.7420,0.21,0.25,0.3,-0.11,0.39,0.47
2022-12-08 20:19:39.7520,0.09,0.38,0.21,-0.15,0.33,0.52
2022-12-08 20:19:39.7620,0.07,0.5,0.31,-0.18,0.27,0.52
2022-12-08 20:19:39.7720,0.11,0.69,0.28,-0.21,0.38,0.64
2022-12-08 20:19:39.7820,0.11,0.69,0.28,-0.24,0.34,0.67
2022-12-08 20:19:39.7920,0.36,0.24,0.83,-0.27,0.37,0.72
2022-12-08 20:19:39.8020,0.26,0.78,0.38,-0.29,0.34,0.79
2022-12-08 20:19:39.8120,0.26,0.78,0.38,-0.31,0.26,0.85
2022-12-08 20:19:39.8220,0.09,0.89,0.25,-0.32,0.16,0.89
2022-12-08 20:19:39.8320,0.0,0.77,0.05,-0.34,0.07,0.92
2022-12-08 20:19:39.8420,0.05,0.48,0.03,-0.36,0.03,0.97
2022-12-08 20:19:39.8520,0.32,0.05,0.02,-0.37,0.03,1.03
2022-12-08 20:19:39.8620,0.69,-0.38,0.1,-0.39,-0.0,1.12
2022-12-08 20:19:39.8720,1.04,-0.65,0.44,-0.43,0.02,1.22
2022-12-08 20:19:39.8820,1.04,-0.65,0.44,-0.47,0.01,1.3
2022-12-08 20:19:39.8920,1.25,-0.74,0.32,-0.52,-0.01,1.41
2022-12-08 20:19:39.9010,1.94,-0.95,0.46,-0.58,-0.02,1.53
2022-12-08 20:19:39.9120,1.94,-0.95,0.46,-0.63,0.03,1.65
2022-12-08 20:19:39.9210,2.26,-1.24,0.51,-0.68,0.08,1.79
2022-12-08 20:19:39.9310,2.29,-1.39,0.69,-0.74,0.13,1.9
2022-12-08 20:19:39.9420,2.2,-1.66,0.8,-0.81,0.16,1.99
2022-12-08 20:19:39.9510,2.27,-2.15,1.18,-0.88,0.2,2.07
2022-12-08 20:19:39.9610,2.27,-2.15,1.18,-0.96,0.28,2.17
2022-12-08 20:19:39.9710,2.7,-2.56,1.35,-1.05,0.35,2.31
2022-12-08 20:19:39.9810,4.19,-3.45,2.66,-1.15,0.46,2.44
2022-12-08 20:19:39.9910,4.19,-3.45,2.66,-1.24,0.65,2.58
2022-12-08 20:19:40.0010,6.13,-5.16,2.77,-1.33,0.87,2.74
2022-12-08 20:19:40.0110,7.06,-6.29,2.13,-1.44,1.15,2.91
2022-12-08 20:19:40.0220,8.37,-7.65,1.62,-1.63,1.14,3.02
2022-12-08 20:19:40.0310,8.37,-7.65,1.62,-1.83,1.02,3.07
2022-12-08 20:19:40.0410,11.45,-10.93,2.31,-2.05,1.42,3.11
2022-12-08 20:19:40.0510,11.45,-10.93,2.31,-2.25,1.95,3.23
2022-12-08 20:19:40.0610,13.9,-10.478467726707459,1.69,-2.33,2.44,3.4
2022-12-08 20:19:40.0710,15.39,-10.48,2.29,-2.2,2.52,3.51
2022-12-08 20:19:40.0800,12.51,-9.97,2.29,-2.1,2.0,3.7
2022-12-08 20:19:40.0900,5.25,-9.48,5.19,-2.19,1.31,3.61
2022-12-08 20:19:40.1010,1.09,-10.37,7.87,-2.21,0.98,2.99
2022-12-08 20:19:40.1100,3.02,-11.56,8.5,-2.01,0.97,2.34
2022-12-08 20:19:40.1200,7.05,-10.43,6.86,-1.71,1.2,1.82
2022-12-08 20:19:40.1300,9.06,-8.26,7.75,-1.44,1.41,1.45
2022-12-08 20:19:40.1400,8.76,-5.9,8.92,-1.25,1.49,1.1
2022-12-08 20:19:40.1500,7.49,-3.51,8.34,-1.04,1.49,0.56
2022-12-08 20:19:40.1600,6.86,-2.2,7.35,-0.72,1.76,0.05
2022-12-08 20:19:40.1700,2.78,-1.4,7.62,-0.53,1.54,-0.21
2022-12-08 20:19:40.1800,2.78,-1.4,7.62,-0.25,0.79,-0.5
2022-12-08 20:19:40.1900,1.99,-0.37,6.62,0.0,-0.09,-0.83
2022-12-08 20:19:40.2000,4.27,1.51,7.04,0.26,-0.69,-1.22
2022-12-08 20:19:40.2100,7.64,2.83,7.16,0.51,-0.79,-1.64
2022-12-08 20:19:40.2200,9.94,2.83,5.97,0.68,-0.41,-2.02
2022-12-08 20:19:40.2300,10.65,2.33,4.22,0.87,-0.03,-2.35
2022-12-08 20:19:40.2400,10.15,1.91,3.32,1.11,-0.0,-2.65
2022-12-08 20:19:40.2500,8.89,1.82,3.99,1.37,-0.25,-2.93
2022-12-08 20:19:40.2600,7.26,2.03,4.47,1.61,-0.61,-3.19
2022-12-08 20:19:40.2700,4.96,1.98,4.47,1.84,-0.99,-3.45
2022-12-08 20:19:40.2800,4.96,1.98,4.47,2.04,-1.3,-3.72
2022-12-08 20:19:40.2890,4.58,1.76,4.57,2.22,-1.47,-3.99
2022-12-08 20:19:40.2990,4.55,1.68,4.7,2.39,-1.52,-4.22
2022-12-08 20:19:40.3100,4.64,1.6,4.7,2.54,-1.44,-4.44
2022-12-08 20:19:40.3190,4.52,0.39,3.96,2.67,-1.21,-4.7
2022-12-08 20:19:40.3290,4.52,0.39,3.96,2.79,-0.81,-5.01
2022-12-08 20:19:40.3390,4.22,-0.85,2.88,2.9,-0.34,-5.29
2022-12-08 20:19:40.3490,3.79,-1.91,1.77,3.01,0.07,-5.51
2022-12-08 20:19:40.3590,3.13,-2.87,0.58,3.16,0.3,-5.62
2022-12-08 20:19:40.3690,2.09,-3.98,-0.42,3.3,0.33,-5.6
2022-12-08 20:19:40.3790,0.57,-5.1,-1.17,3.39,0.21,-5.56
2022-12-08 20:19:40.3890,-0.96,-6.5,-1.66,3.43,0.07,-5.51
2022-12-08 20:19:40.3990,-2.31,-7.85,-2.21,3.43,-0.06,-5.41
2022-12-08 20:19:40.4090,-3.87,-8.83,-2.8,3.47,-0.12,-5.28
2022-12-08 20:19:40.4200,-5.68,-9.83,-3.18,3.54,-0.2,-5.16
2022-12-08 20:19:40.4300,-7.44,-10.94,-3.26,3.53,-0.34,-4.96
2022-12-08 20:19:40.4400,-9.37,-11.94,-3.46,3.41,-0.45,-4.69
2022-12-08 20:19:40.4490,-11.7,-13.04,-4.94,3.19,-0.53,-4.39
2022-12-08 20:19:40.4590,-14.09,-13.8,-7.5,2.87,-0.76,-3.98
2022-12-08 20:19:40.4690,-16.44,-13.22,-9.36,2.44,-1.09,-3.42
2022-12-08 20:19:40.4790,-18.7,-10.99,-10.49,1.94,-1.4,-2.72
2022-12-08 20:19:40.4890,-20.66,-7.77,-11.3,1.41,-1.39,-1.97
2022-12-08 20:19:40.4980,-21.98,-4.48,-11.64,0.88,-1.05,-1.19
2022-12-08 20:19:40.5080,-22.15,-2.29,-11.94,0.35,-0.52,-0.38
2022-12-08 20:19:40.5180,-21.35,-1.64,-12.21,-0.21,-0.02,0.43
2022-12-08 20:19:40.5280,-20.48,-1.3,-12.65,-0.69,0.25,1.1
2022-12-08 20:19:40.5380,-18.97,-0.92,-10.49,-1.07,0.26,1.58
2022-12-08 20:19:40.5480,-18.97,-0.92,-10.49,-1.37,0.18,1.94
2022-12-08 20:19:40.5580,-16.9,-1.79,-8.66,-1.39,0.32,2.3
2022-12-08 20:19:40.5680,-8.63,-4.02,1.13,-0.89,0.11,2.32
2022-12-08 20:19:40.5780,9.34,-3.83,26.83,-0.77,-3.01,1.68
2022-12-08 20:19:40.5880,9.34,-3.83,26.83,-0.95,-2.72,0.36
2022-12-08 20:19:40.5980,19.83,-7.72,-14.21,0.11,1.52,1.87
2022-12-08 20:19:40.6080,19.83,-7.72,-14.21,-0.58,4.86,4.85
2022-12-08 20:19:40.6180,-27.15,-14.2,-17.91,-1.53,2.89,6.85
2022-12-08 20:19:40.6280,-27.15,-14.2,-17.91,-0.91,-0.7,4.81
2022-12-08 20:19:40.6380,-20.42,-14.87,7.55,-0.81,-0.76,2.89
2022-12-08 20:19:40.6480,-13.01,2.86,-0.63,-0.62,-1.65,1.92
2022-12-08 20:19:40.6580,-7.77,7.31,-1.51,-0.57,-1.04,1.63
2022-12-08 20:19:40.6680,-0.57,4.08,0.58,-0.44,-0.45,1.59
2022-12-08 20:19:40.6770,3.34,-0.57,-3.01,-0.51,0.05,1.57
2022-12-08 20:19:40.6880,-2.22,-5.89,-2.31,-0.44,0.35,1.4
2022-12-08 20:19:40.6980,-2.22,-5.89,-2.31,-0.45,0.01,1.1
2022-12-08 20:19:40.7070,-5.0,-2.59,0.13,-0.34,-0.28,0.71
2022-12-08 20:19:40.7170,-3.1,-0.47,-0.6,-0.26,-0.24,0.55
2022-12-08 20:19:40.7280,-0.65,0.06,-1.4,-0.22,-0.07,0.57
2022-12-08 20:19:40.7370,0.64,-0.64,-0.83,-0.19,0.14,0.59
2022-12-08 20:19:40.7470,1.03,-1.28,-0.81,-0.16,0.22,0.56
2022-12-08 20:19:40.7580,0.43,-1.08,-0.43,-0.15,0.18,0.46
2022-12-08 20:19:40.7670,-1.06,-0.56,0.17,-0.14,0.12,0.35
2022-12-08 20:19:40.7770,-1.06,-0.56,0.17,-0.13,0.15,0.3
2022-12-08 20:19:40.7870,-0.38,-0.52,0.26,-0.12,0.28,0.3
2022-12-08 20:19:40.7970,0.58,-0.46,0.03,-0.11,0.39,0.29
2022-12-08 20:19:40.8070,0.7,-0.59,-0.28,-0.1,0.44,0.23
2022-12-08 20:19:40.8170,0.03,-0.68,-0.23,-0.09,0.44,0.2
2022-12-08 20:19:40.8270,-0.44,-0.53,0.02,-0.08,0.46,0.2
2022-12-08 20:19:40.8370,-0.08,-0.38,-0.14,-0.08,0.47,0.21
2022-12-08 20:19:40.8470,0.49,-0.25,-0.29,-0.1,0.46,0.24
2022-12-08 20:19:40.8580,0.61,-0.06,-0.11,-0.11,0.45,0.26
2022-12-08 20:19:40.8670,0.37,0.12,0.2,-0.13,0.45,0.28
2022-12-08 20:19:40.8770,0.1,0.26,0.34,-0.16,0.43,0.3
2022-12-08 20:19:40.8870,-0.02,0.4,0.31,-0.18,0.41,0.32
2022-12-08 20:19:40.8960,-0.03,0.48,0.39,-0.2,0.39,0.35
2022-12-08 20:19:40.9060,0.01,0.54,0.53,-0.22,0.41,0.37
2022-12-08 20:19:40.9160,0.05,0.51,0.45,-0.24,0.42,0.41
2022-12-08 20:19:40.9260,0.07,0.52,0.43,-0.26,0.4,0.47
2022-12-08 20:19:40.9360,0.09,0.7,0.35,-0.28,0.34,0.54
2022-12-08 20:19:40.9460,0.0,0.9,0.27,-0.32,0.26,0.6
2022-12-08 20:19:40.9560,0.0,0.9,0.27,-0.35,0.18,0.66
2022-12-08 20:19:40.9660,0.03,0.77,0.2,-0.39,0.08,0.73
2022-12-08 20:19:40.9760,0.16,0.7,0.22,-0.43,0.02,0.8
2022-12-08 20:19:40.9860,0.37,0.58,0.26,-0.47,-0.03,0.88
2022-12-08 20:19:40.9960,0.78,0.41,0.81,-0.5,-0.07,0.97
2022-12-08 20:19:41.0060,0.78,0.41,0.81,-0.54,-0.09,1.09
2022-12-08 20:19:41.0160,1.1,-0.02,1.0,-0.59,-0.08,1.19
2022-12-08 20:19:41.0260,1.1,-0.02,1.0,-0.65,-0.06,1.28
2022-12-08 20:19:41.0360,1.19,-0.632519629597664,0.61,-0.72,-0.05,1.38
2022-12-08 20:19:41.0460,1.45,-0.64,0.61,-0.79,-0.04,1.49
2022-12-08 20:19:41.0560,1.85,-1.06,0.38,-0.85,-0.04,1.62
2022-12-08 20:19:41.0660,2.07,-1.7281966263055801,0.43,-0.92,-0.09,1.77
2022-12-08 20:19:41.0750,2.07,-1.73,0.43,-1.0,-0.14,1.89
2022-12-08 20:19:41.0850,2.13,-1.88,0.74,-1.1,-0.15,2.02
2022-12-08 20:19:41.0960,2.26,-2.14,0.92,-1.19,-0.17,2.15
2022-12-08 20:19:41.1050,2.68,-2.62,1.54,-1.29,-0.06,2.28
2022-12-08 20:19:41.1150,4.39,-4.21,2.67,-1.39,0.16,2.47
2022-12-08 20:19:41.1250,4.39,-4.21,2.67,-1.49,0.42,2.67
2022-12-08 20:19:41.1350,5.18,-5.59,3.15,-1.6,0.65,2.84
2022-12-08 20:19:41.1450,6.82,-6.2,2.63,-1.7,0.83,3.01
2022-12-08 20:19:41.1550,6.82,-6.2,2.63,-1.87,0.79,3.15
2022-12-08 20:19:41.1650,7.96,-7.31,1.93,-2.07,0.63,3.22
2022-12-08 20:19:41.1750,9.19,-9.54,2.78,-2.31,0.76,3.37
2022-12-08 20:19:41.1850,10.9,-11.45,2.99,-2.45,1.22,3.54
2022-12-08 20:19:41.1950,13.09,-12.33,2.74,-2.46,1.72,3.66
2022-12-08 20:19:41.2050,14.18,-13.01,3.07,-2.38,1.83,3.68
2022-12-08 20:19:41.2150,12.16,-12.41,4.45,-2.43,1.55,3.77
2022-12-08 20:19:41.2250,6.59,-10.91,6.84,-2.47,1.31,3.67
2022-12-08 20:19:41.2350,3.42,-10.06,8.33,-2.38,0.88,3.14
2022-12-08 20:19:41.2450,5.91,-10.61,9.49,-2.18,0.93,2.56
2022-12-08 20:19:41.2540,8.7,-9.87,8.73,-1.78,1.35,2.09
2022-12-08 20:19:41.2650,7.604323836565018,-5.99,8.89,-1.49,1.51,1.59
2022-12-08 20:19:41.2750,7.6,-5.99,8.89,-1.24,1.34,1.04
2022-12-08 20:19:41.2850,6.11,-1.94,8.13,-0.96,1.15,0.35
2022-12-08 20:19:41.2940,5.44,-1.94,8.13,-0.58,1.18,-0.16
2022-12-08 20:19:41.3040,4.77,-1.66,7.38,-0.4,0.88,-0.35
2022-12-08 20:19:41.3140,1.5,-1.41,8.96,-0.06,0.21,-0.64
2022-12-08 20:19:41.3240,1.47,-0.41,7.09,0.21,-0.61,-1.04
2022-12-08 20:19:41.3340,9.14,3.52,7.97,0.49,-1.0,-1.5
2022-12-08 20:19:41.3440,9.14,3.52,7.97,0.74,-0.78,-1.95
2022-12-08 20:19:41.3540,11.33,3.48,4.029938449859619,0.94,-0.25,-2.28
2022-12-08 20:19:41.3640,11.15,3.07,4.02,1.17,0.04,-2.55
2022-12-08 20:19:41.3740,9.54,2.56,3.95,1.42,-0.14,-2.86
2022-12-08 20:19:41.3840,5.55,2.02,5.42,1.67,-0.62,-3.2
2022-12-08 20:19:41.3940,5.55,2.02,5.42,1.9,-1.13,-3.5
2022-12-08 20:19:41.4040,3.94,1.94,5.47,2.09,-1.55,-3.74
2022-12-08 20:19:41.4140,3.94,1.94,5.47,2.23,-1.81,-3.97
2022-12-08 20:19:41.4240,4.09,1.76,5.25,2.37,-1.84,-4.22
2022-12-08 20:19:41.4340,4.42,1.45,4.78,2.51,-1.73,-4.46
2022-12-08 20:19:41.4440,4.44,1.03,4.33,2.67,-1.62,-4.64
2022-12-08 20:19:41.4530,3.84,0.61,4.26,2.82,-1.46,-4.82
2022-12-08 20:19:41.4630,2.81,-0.06,3.84,2.96,-1.25,-5.0
2022-12-08 20:19:41.4740,1.6,-0.99,3.11,3.09,-1.12,-5.14
2022-12-08 20:19:41.4840,-0.33,-2.31,1.69,3.21,-1.04,-5.25
2022-12-08 20:19:41.4930,-0.33,-2.31,0.8476883947849274,3.28,-1.02,-5.3
2022-12-08 20:19:41.5030,-1.0,-3.03,0.84,3.32,-1.0,-5.36
2022-12-08 20:19:41.5130,-1.84,-4.12,0.01,3.31,-0.87,-5.46
2022-12-08 20:19:41.5230,-2.66,-5.75,-0.95,3.3,-0.7,-5.45
2022-12-08 20:19:41.5330,-6.17,-7.72,-1.82,3.3,-0.53,-5.33
2022-12-08 20:19:41.5430,-8.24,-8.99,-2.78,3.3,-0.35,-5.21
2022-12-08 20:19:41.5530,-8.24,-8.99,-2.78,3.28,-0.17,-5.08
2022-12-08 20:19:41.5640,-10.17,-10.09,-3.89,3.18,0.01,-4.86
2022-12-08 20:19:41.5740,-11.91,-11.04,-5.16,2.94,0.19,-4.51
2022-12-08 20:19:41.5840,-13.35,-11.76,-6.77,2.58,0.29,-4.03
2022-12-08 20:19:41.5930,-16.35,-11.13,-10.29,2.15,0.43,-3.47
2022-12-08 20:19:41.6030,-16.35,-11.13,-10.29,1.72,0.53,-2.89
2022-12-08 20:19:41.6130,-18.17,-8.98,-11.14,1.3,0.62,-2.24
2022-12-08 20:19:41.6230,-21.9,-3.68,-11.06,0.88,0.67,-1.49
2022-12-08 20:19:41.6330,-21.9,-3.68,-11.06,0.42,0.72,-0.64
2022-12-08 20:19:41.6430,-22.72,-2.2,-11.22,-0.05,0.68,0.09
2022-12-08 20:19:41.6530,-19.58,-1.62,-11.72,-0.49,0.71,0.77
2022-12-08 20:19:41.6630,-19.58,-1.62,-11.72,-0.8,0.68,1.42
2022-12-08 20:19:41.6730,-18.15,-1.48,-10.97,-1.04,0.46,2.05
2022-12-08 20:19:41.6820,-17.34,-2.0,-8.78,-1.21,0.07,2.59
2022-12-08 20:19:41.6920,-16.76,-2.6,-7.26,-0.08,-0.32,2.44
2022-12-08 20:19:41.7030,-8.79,-5.96,4.14,-0.96,-4.02,1.8
2022-12-08 20:19:41.7130,12.47,-7.26,29.9,-1.15,-3.23,0.64
2022-12-08 20:19:41.7240,30.34,-15.67,1.58,-0.81,1.12,2.0
2022-12-08 20:19:41.7330,14.94,-12.13,-22.41,-0.88,3.15,4.52
2022-12-08 20:19:41.7420,-20.17,-11.1,-0.22,-0.77,0.73,5.85
2022-12-08 20:19:41.7520,-20.17,-11.1,-0.22,-1.22,-0.72,4.5
2022-12-08 20:19:41.7620,-14.98,-1.15,5.95,-0.64,-0.75,2.61
2022-12-08 20:19:41.7720,-8.54,5.63,-5.17,-0.69,-1.03,1.93
2022-12-08 20:19:41.7820,-3.17,6.28,1.52,-0.51,-0.13,1.83
2022-12-08 20:19:41.7920,0.84,0.67,-2.95,-0.52,0.19,1.86
2022-12-08 20:19:41.8020,-1.22,-6.54,-2.34,-0.48,0.39,1.7
2022-12-08 20:19:41.8120,-1.22,-3.7553368306159975,-0.33,-0.49,0.3,1.41
2022-12-08 20:19:41.8220,-4.65,-3.76,-0.33,-0.42,-0.13,1.03
2022-12-08 20:19:41.8320,-4.25,-0.5,0.26,-0.36,-0.25,0.73
2022-12-08 20:19:41.8420,-2.04,0.36,-0.71,-0.32,-0.12,0.6
2022-12-08 20:19:41.8520,0.55,-1.65,-1.02,-0.29,0.05,0.59
2022-12-08 20:19:41.8620,0.55,-1.65,-1.02,-0.24,0.18,0.55
2022-12-08 20:19:41.8720,-0.02,-1.53,-0.64,-0.22,0.22,0.47
2022-12-08 20:19:41.8810,-0.02,-1.53,-0.64,-0.21,0.23,0.38
2022-12-08 20:19:41.8920,0.15,-0.96,0.22,-0.21,0.3,0.36
2022-12-08 20:19:41.9010,0.98,-1.12,-0.17,-0.21,0.42,0.37
2022-12-08 20:19:41.9110,1.1,-1.29,-0.22,-0.22,0.51,0.35
2022-12-08 20:19:41.9210,1.1,-1.29,-0.09706845760345459,-0.22,0.56,0.31
2022-12-08 20:19:41.9310,0.42,-1.03,-0.1,-0.21,0.56,0.3
2022-12-08 20:19:41.9410,-0.08,-0.59,0.04,-0.2,0.52,0.3
2022-12-08 20:19:41.9510,-0.06,-0.34,-0.02,-0.2,0.48,0.3
2022-12-08 20:19:41.9610,0.13,-0.19,-0.09,-0.2,0.46,0.32
2022-12-08 20:19:41.9710,0.27,-0.03,-0.02,-0.21,0.46,0.35
2022-12-08 20:19:41.9810,0.36,0.11,0.03,-0.23,0.47,0.38
2022-12-08 20:19:41.9910,0.27,0.31,0.32,-0.26,0.45,0.41
2022-12-08 20:19:42.0010,0.1,0.57,0.61,-0.27,0.44,0.43
2022-12-08 20:19:42.0100,-0.15,0.79,0.84,-0.28,0.44,0.43
2022-12-08 20:19:42.0210,-0.26,1.02,1.01,-0.29,0.45,0.45
2022-12-08 20:19:42.0310,-0.26,1.26,1.08,-0.3,0.42,0.49
2022-12-08 20:19:42.0410,-0.33,1.47,1.25,-0.32,0.4,0.53
2022-12-08 20:19:42.0510,-0.41,1.39,1.11,-0.34,0.39,0.55
2022-12-08 20:19:42.0610,-0.42,1.11,0.9,-0.37,0.36,0.59
2022-12-08 20:19:42.0710,-0.42,1.11,0.9,-0.38,0.33,0.62
2022-12-08 20:19:42.0800,-0.23,1.06,0.74,-0.39,0.33,0.66
2022-12-08 20:19:42.0900,-0.09,0.87,0.37,-0.41,0.33,0.68
2022-12-08 20:19:42.1000,0.09,0.65,-0.23,-0.43,0.28,0.73
2022-12-08 20:19:42.1100,0.15,0.61,-0.49,-0.46,0.19,0.79
2022-12-08 20:19:42.1200,0.1,0.55,-0.36,-0.49,0.12,0.84
2022-12-08 20:19:42.1300,0.4,0.15,-0.21,-0.53,0.06,0.92
2022-12-08 20:19:42.1400,0.9,-0.19,0.4774812547490001,-0.57,0.02,1.03
2022-12-08 20:19:42.1500,1.13,-0.31,0.47,-0.62,-0.01,1.14
2022-12-08 20:19:42.1600,1.34,-0.57,0.7,-0.68,-0.04,1.26
2022-12-08 20:19:42.1700,1.34,-0.57,0.7,-0.74,-0.1,1.38
2022-12-08 20:19:42.1800,1.49,-0.57,0.764348030090332,-0.82,-0.16,1.49
2022-12-08 20:19:42.1900,1.8,-1.09,0.76,-0.89,-0.19,1.62
2022-12-08 20:19:42.2000,2.23,-1.85,0.69,-0.96,-0.19,1.79
2022-12-08 20:19:42.2100,2.7,-2.33,0.5,-1.02,-0.15,1.95
2022-12-08 20:19:42.2200,3.23,-2.54,0.31,-1.1,-0.16,2.09
2022-12-08 20:19:42.2300,3.65,-3.243430641889572,1.15,-1.19,-0.19,2.25
2022-12-08 20:19:42.2400,3.83,-3.25,1.15,-1.29,-0.14,2.41
2022-12-08 20:19:42.2500,4.16,-3.88,1.77,-1.39,-0.01,2.56
2022-12-08 20:19:42.2600,4.92,-4.42,2.34,-1.51,0.19,2.71
2022-12-08 20:19:42.2700,5.93,-4.87,2.83,-1.63,0.43,2.86
2022-12-08 20:19:42.2790,7.1,-5.85,3.17,-1.83,0.49,3.02
2022-12-08 20:19:42.2890,8.58,-7.4,3.39,-2.09,0.5,3.12
2022-12-08 20:19:42.2990,10.02,-9.59,4.78,-2.29,1.05,3.22
2022-12-08 20:19:42.3100,14.5,-12.14,3.0,-2.37,2.04,3.46
2022-12-08 20:19:42.3210,14.5,-12.14,3.0,-2.31,2.85,3.66
2022-12-08 20:19:42.3290,15.08,-11.32,1.87,-2.16,2.7,3.76
2022-12-08 20:19:42.3390,10.48,-10.65,3.34,-2.27,2.05,3.79
2022-12-08 20:19:42.3490,4.43,-10.42,6.3,-2.23,1.45,3.52
2022-12-08 20:19:42.3590,1.79,-11.14,8.28,-2.21,1.26,3.05
2022-12-08 20:19:42.3690,2.85,-11.56,8.86,-2.05,1.21,2.48
2022-12-08 20:19:42.3790,5.89,-11.11,7.52,-1.84,1.05,1.86
2022-12-08 20:19:42.3890,8.32,-9.63,8.14,-1.62,0.92,1.32
2022-12-08 20:19:42.3990,8.7,-7.37,9.43,-1.27,0.97,0.89
2022-12-08 20:19:42.4090,7.33,-4.29,8.35,-0.91,1.16,0.42
2022-12-08 20:19:42.4190,6.25,-1.97,7.45,-0.62,1.32,0.03
2022-12-08 20:19:42.4290,5.42,-1.36,7.93,-0.42,1.05,-0.23
2022-12-08 20:19:42.4380,3.08,-0.014712764024734497,6.97,-0.08,0.42,-0.53
2022-12-08 20:19:42.4490,3.1,-0.02,6.97,0.2,-0.28,-0.88
2022-12-08 20:19:42.4580,5.77,1.83,7.45,0.5,-0.66,-1.3
2022-12-08 20:19:42.4680,8.89,2.83,7.26,0.75,-0.55,-1.72
2022-12-08 20:19:42.4780,10.55,2.85,5.74,0.92,-0.16,-2.08
2022-12-08 20:19:42.4880,10.55,2.72,4.23,1.12,0.07,-2.39
2022-12-08 20:19:42.4980,9.46,2.45,3.69,1.36,-0.05,-2.69
2022-12-08 20:19:42.5080,7.7,2.21,4.22,1.6,-0.41,-2.98
2022-12-08 20:19:42.5180,5.92,2.31,4.6,1.82,-0.86,-3.22
2022-12-08 20:19:42.5280,4.78,2.5,4.7,2.02,-1.28,-3.45
2022-12-08 20:19:42.5380,4.44,2.42,4.7,2.19,-1.55,-3.7
2022-12-08 20:19:42.5480,4.53,2.17,4.56,2.33,-1.68,-3.96
2022-12-08 20:19:42.5580,4.63,2.09,4.43,2.48,-1.71,-4.2
2022-12-08 20:19:42.5690,4.53,2.03,4.44,2.61,-1.67,-4.44
2022-12-08 20:19:42.5780,4.11,1.6,4.53,2.74,-1.51,-4.71
2022-12-08 20:19:42.5880,3.28,0.76,4.12,2.86,-1.29,-4.99
2022-12-08 20:19:42.5980,2.35,-0.1,3.64,2.97,-1.06,-5.22
2022-12-08 20:19:42.6080,1.6,-0.71,3.07,3.06,-0.82,-5.41
2022-12-08 20:19:42.6180,1.07,-1.48,2.2,3.15,-0.59,-5.56
2022-12-08 20:19:42.6280,0.62,-2.58,1.18,3.24,-0.39,-5.62
2022-12-08 20:19:42.6380,-0.22,-3.9,0.25,3.26,-0.25,-5.62
2022-12-08 20:19:42.6480,-1.47,-5.28,-0.49,3.28,-0.11,-5.6
2022-12-08 20:19:42.6580,-2.76,-6.62,-1.14,3.3,-0.0,-5.56
2022-12-08 20:19:42.6670,-6.4,-9.47,-2.36,3.31,0.11,-5.54
2022-12-08 20:19:42.6770,-6.4,-9.47,-2.36,3.35,0.17,-5.5
2022-12-08 20:19:42.6890,-8.41,-11.35,-2.75,3.32,0.2,-5.37
2022-12-08 20:19:42.6980,-10.21,-12.87,-3.14,3.19,0.25,-5.1
2022-12-08 20:19:42.7080,-11.53,-13.86,-4.05,2.95,0.39,-4.73
2022-12-08 20:19:42.7180,-12.43,-14.4,-5.79,2.65,0.61,-4.27
2022-12-08 20:19:42.7280,-13.44,-13.94,-7.84,2.31,0.8,-3.71
2022-12-08 20:19:42.7370,-14.87,-12.05,-9.61,1.9,0.86,-3.04
2022-12-08 20:19:42.7470,-16.96,-9.35,-10.62,1.46,0.81,-2.26
2022-12-08 20:19:42.7570,-19.41,-6.54,-11.23,0.96,0.68,-1.46
2022-12-08 20:19:42.7670,-21.3,-4.2,-12.15,0.39,0.59,-0.63
2022-12-08 20:19:42.7770,-21.88,-2.74,-13.32,-0.12,0.51,0.23
2022-12-08 20:19:42.7870,-21.26,-1.58,-13.19,-0.54,0.36,0.9
2022-12-08 20:19:42.7970,-19.27,-1.53,-11.71,-0.84,0.15,1.39
2022-12-08 20:19:42.8070,-16.84,-2.12,-9.87,-1.07,-0.07,1.78
2022-12-08 20:19:42.8170,-14.43,-2.94,-7.89,-1.17,-0.26,2.32
2022-12-08 20:19:42.8270,-13.64,-2.86,-7.8,-1.16,-0.83,2.57
2022-12-08 20:19:42.8370,-12.13,-4.39,-6.55,-0.69,-1.54,2.4
2022-12-08 20:19:42.8470,-6.87,-5.84,-2.28,0.16,-2.67,2.6
2022-12-08 20:19:42.8570,4.84,-0.33,17.44,-0.75,-4.26,2.03
2022-12-08 20:19:42.8680,26.86,-0.83,19.64,-0.72,-0.93,1.35
2022-12-08 20:19:42.8780,30.5,-11.34,-14.74,0.33,2.48,2.85
2022-12-08 20:19:42.8870,3.77,-12.52,-13.3,-0.99,4.53,4.69
2022-12-08 20:19:42.8970,-24.55,-11.21,-1.0,-1.14,1.37,5.84
2022-12-08 20:19:42.9060,-24.55,-11.21,-1.0,-1.05,-1.89,4.31
2022-12-08 20:19:42.9160,-17.95,-0.72,7.95,-0.93,-1.6,2.31
2022-12-08 20:19:42.9260,-9.61,3.92,-3.66,-0.83,-1.8,1.37
2022-12-08 20:19:42.9360,-0.98,2.97,-0.86,-0.69,-0.75,1.2
2022-12-08 20:19:42.9460,3.78,-0.57,-2.84,-0.6,0.37,1.54
2022-12-08 20:19:42.9560,4.55,-4.16,-5.87,-0.52,0.67,1.8
2022-12-08 20:19:42.9660,1.8,-4.87,-2.24,-0.53,0.72,1.55
2022-12-08 20:19:42.9760,-2.55,-2.47,-0.57,-0.45,0.29,1.05
2022-12-08 20:19:42.9860,-4.39,-0.23,0.31,-0.4,-0.19,0.71
2022-12-08 20:19:42.9960,-3.84,0.46,0.64,-0.35,-0.27,0.56
2022-12-08 20:19:43.0060,-2.08,-0.39,-0.26,-0.33,-0.12,0.5
2022-12-08 20:19:43.0150,-0.45,-1.13,-0.49,-0.33,0.05,0.43
2022-12-08 20:19:43.0260,0.35,-1.0,-0.19,-0.32,0.17,0.36
2022-12-08 20:19:43.0360,0.3,-0.54,-0.01,-0.31,0.22,0.35
2022-12-08 20:19:43.0460,0.0,-0.42,-0.1,-0.31,0.26,0.35
2022-12-08 20:19:43.0550,0.05,-0.64,0.15,-0.3,0.28,0.33
2022-12-08 20:19:43.0650,0.2,-0.51,0.24,-0.28,0.29,0.33
2022-12-08 20:19:43.0750,0.26,-0.19,0.15,-0.27,0.28,0.35
2022-12-08 20:19:43.0850,0.29,-0.15,-0.05,-0.26,0.27,0.36
2022-12-08 20:19:43.0950,0.29,-0.24,-0.17,-0.27,0.25,0.39
2022-12-08 20:19:43.1050,0.27,-0.13,-0.08,-0.28,0.23,0.45
2022-12-08 20:19:43.1150,0.34,0.19,0.06,-0.3,0.24,0.5
2022-12-08 20:19:43.1250,0.38,0.45,0.25,-0.32,0.26,0.53
2022-12-08 20:19:43.1350,0.2,0.59,0.4,-0.33,0.28,0.55
2022-12-08 20:19:43.1450,-0.08,0.69,0.35,-0.34,0.28,0.56
2022-12-08 20:19:43.1550,-0.23,0.82,0.25,-0.36,0.25,0.58
2022-12-08 20:19:43.1650,-0.36,1.06,0.35,-0.35,0.21,0.6
2022-12-08 20:19:43.1750,-0.44,1.16,0.62,-0.37,0.15,0.61
2022-12-08 20:19:43.1850,-0.4,1.09,0.7,-0.39,0.14,0.62
2022-12-08 20:19:43.1950,-0.41,0.89,0.57,-0.41,0.12,0.63
2022-12-08 20:19:43.2050,-0.28,0.55,0.44,-0.41,0.12,0.65
2022-12-08 20:19:43.2150,0.02,0.26,0.13,-0.41,0.12,0.7
2022-12-08 20:19:43.2250,0.34,0.17,-0.12,-0.42,0.13,0.76
2022-12-08 20:19:43.2350,0.61,-0.06,-0.2,-0.44,0.13,0.81
2022-12-08 20:19:43.2450,0.61,-0.06,-0.2,-0.47,0.08,0.86
2022-12-08 20:19:43.2540,0.61,-0.2,-0.3,-0.51,-0.01,0.91
2022-12-08 20:19:43.2650,0.52,-0.41,-0.12,-0.56,-0.08,0.95
2022-12-08 20:19:43.2750,0.53,-0.67,0.29,-0.62,-0.08,1.03
2022-12-08 20:19:43.2840,0.86,-0.8,0.47,-0.69,-0.06,1.16
2022-12-08 20:19:43.2940,1.41,-0.8,0.42,-0.76,-0.02,1.3
2022-12-08 20:19:43.3040,2.0,-0.87,0.67,-0.83,-0.01,1.45
2022-12-08 20:19:43.3140,2.0,-0.87,0.67,-0.92,-0.09,1.6
2022-12-08 20:19:43.3240,1.99,-1.48,0.98,-1.0,-0.17,1.74
2022-12-08 20:19:43.3340,2.16,-2.73,1.09,-1.08,-0.2,1.87
2022-12-08 20:19:43.3440,2.16,-2.73,1.09,-1.17,-0.21,2.02
2022-12-08 20:19:43.3540,2.53,-3.0,0.8,-1.27,-0.19,2.16
2022-12-08 20:19:43.3640,2.9,-3.31,0.87,-1.36,-0.11,2.3
2022-12-08 20:19:43.3740,3.33,-3.84,1.55,-1.44,0.03,2.43
2022-12-08 20:19:43.3840,4.02,-4.38,2.54,-1.52,0.26,2.54
2022-12-08 20:19:43.3940,4.87,-5.08,2.92,-1.66,0.32,2.65
2022-12-08 20:19:43.4040,5.73,-5.98,2.55,-1.81,0.24,2.72
2022-12-08 20:19:43.4140,6.19,-7.81,4.18,-1.91,0.48,2.81
2022-12-08 20:19:43.4240,6.98,-10.15,5.13,-2.01,0.82,3.02
2022-12-08 20:19:43.4340,9.3,-11.04,5.28,-2.04,1.25,3.21
2022-12-08 20:19:43.4440,11.84,-11.47,5.54,-2.14,1.84,3.31
2022-12-08 20:19:43.4540,12.9,-11.74,4.68,-2.27,2.34,3.37
2022-12-08 20:19:43.4630,12.98,-11.28,3.41,-2.25,2.76,3.39
2022-12-08 20:19:43.4730,11.52,-10.78,3.43,-2.33,3.07,3.43
2022-12-08 20:19:43.4830,8.16,-10.05,4.93,-2.28,2.73,3.22
2022-12-08 20:19:43.4930,6.84,-9.68,7.58,-2.03,2.41,2.8
2022-12-08 20:19:43.5030,7.33,-7.869518455266953,7.34,-1.77,2.55,2.42
2022-12-08 20:19:43.5130,6.2,-7.87,7.34,-1.42,2.49,1.99
2022-12-08 20:19:43.5230,4.74,-6.83,7.94,-1.17,2.19,1.52
2022-12-08 20:19:43.5330,3.82,-4.08,9.26,-0.91,1.86,0.95
2022-12-08 20:19:43.5430,3.82,-4.08,9.26,-0.53,1.62,0.35
2022-12-08 20:19:43.5530,4.97,-2.71,8.28,-0.25,1.38,0.12
2022-12-08 20:19:43.5630,4.95,-1.44,9.51,-0.11,1.3,0.12
2022-12-08 20:19:43.5730,2.4,-0.12,7.98,0.26,0.91,-0.11
2022-12-08 20:19:43.5830,3.01,0.91,5.5,0.53,0.02,-0.5
2022-12-08 20:19:43.5930,6.51,2.03,8.7,0.78,-0.37,-0.95
2022-12-08 20:19:43.6030,9.29,2.5,7.96,1.03,-0.24,-1.3
2022-12-08 20:19:43.6130,9.86,2.53,5.61,1.25,-0.07,-1.54
2022-12-08 20:19:43.6230,8.94,2.59,4.61,1.51,-0.22,-1.78
2022-12-08 20:19:43.6330,7.56,2.58,4.84,1.74,-0.63,-2.05
2022-12-08 20:19:43.6430,6.35,2.63,5.24,1.97,-1.03,-2.32
2022-12-08 20:19:43.6520,5.48,2.72,4.94,2.16,-1.32,-2.57
2022-12-08 20:19:43.6620,5.05,2.82,4.53,2.35,-1.51,-2.84
2022-12-08 20:19:43.6720,4.93,2.75,4.23,2.54,-1.66,-3.13
2022-12-08 20:19:43.6820,4.7,2.54,4.32,2.7,-1.79,-3.41
2022-12-08 20:19:43.6920,4.39,2.34,4.62,2.83,-1.83,-3.7
2022-12-08 20:19:43.7020,4.22,1.94,4.67,2.94,-1.72,-4.01
2022-12-08 20:19:43.7120,4.3,1.42,4.26,3.01,-1.45,-4.32
2022-12-08 20:19:43.7220,4.6,0.86,3.52,3.08,-0.98,-4.64
2022-12-08 20:19:43.7320,4.87,0.05,2.44,3.16,-0.44,-4.94
2022-12-08 20:19:43.7420,4.65,-1.13,1.49,3.25,0.02,-5.16
2022-12-08 20:19:43.7520,3.59,-2.33,0.86,3.38,0.32,-5.29
2022-12-08 20:19:43.7620,1.86,-3.62,0.23,3.52,0.47,-5.34
2022-12-08 20:19:43.7720,0.04,-4.75,-0.1,3.64,0.52,-5.36
2022-12-08 20:19:43.7820,-1.44,-5.67,-0.49,3.75,0.52,-5.34
2022-12-08 20:19:43.7920,-2.65,-6.54,-0.9,3.82,0.58,-5.29
2022-12-08 20:19:43.8020,-3.83,-7.68,-1.28,3.88,0.69,-5.2
2022-12-08 20:19:43.8120,-5.15,-9.23,-1.89,3.96,0.89,-5.12
2022-12-08 20:19:43.8230,-6.44,-11.13,-2.76,3.98,1.21,-5.1
2022-12-08 20:19:43.8330,-7.51,-13.01,-4.11,3.9,1.58,-5.01
2022-12-08 20:19:43.8420,-8.45,-14.03,-6.05,3.64,1.84,-4.77
2022-12-08 20:19:43.8520,-9.29,-14.01,-8.56,3.21,1.94,-4.4
2022-12-08 20:19:43.8620,-9.96,-13.75,-12.17,2.68,1.83,-3.93
2022-12-08 20:19:43.8720,-10.8,-13.15,-15.58,2.12,1.45,-3.41
2022-12-08 20:19:43.8810,-12.53,-11.24,-16.26,1.71,1.09,-2.84
2022-12-08 20:19:43.8910,-15.01,-7.99,-13.78,1.33,1.12,-2.24
2022-12-08 20:19:43.9010,-17.12,-4.74,-12.24,0.82,1.36,-1.56
2022-12-08 20:19:43.9110,-17.87,-3.32,-13.32,0.29,1.38,-0.59
2022-12-08 20:19:43.9210,-18.09,-2.28,-15.35,-0.18,1.09,0.3
2022-12-08 20:19:43.9310,-18.28,-1.61,-15.59,-0.66,0.61,0.81
2022-12-08 20:19:43.9410,-16.19,-1.52,-14.09,-0.95,0.07,1.21
2022-12-08 20:19:43.9510,-13.59,-1.32,-12.15,-1.22,-0.42,1.78
2022-12-08 20:19:43.9610,-12.2,-1.99,-10.43,-1.26,-0.81,2.29
2022-12-08 20:19:43.9710,-12.25,-3.38,-10.22,-1.26,-1.27,2.39
2022-12-08 20:19:43.9810,-10.33,-5.72,-7.67,0.14,-1.63,2.42
2022-12-08 20:19:43.9910,-4.83,-5.61,4.21,-0.4,-4.61,2.77
2022-12-08 20:19:44.0010,24.0,-8.4,-2.63,-1.92,-2.55,1.93
2022-12-08 20:19:44.0110,24.0,-8.4,-2.63,-2.14,0.92,1.45
2022-12-08 20:19:44.0200,1.02,-12.95,-16.0,-0.21,0.35,2.59
2022-12-08 20:19:44.0310,1.02,-12.95,-16.0,-0.39,0.15,3.83
2022-12-08 20:19:44.0400,-11.34,-17.53,-4.27,-1.45,-1.66,3.81
2022-12-08 20:19:44.0500,-11.71,-2.6,10.37,-1.1,-1.08,2.93
2022-12-08 20:19:44.0600,-4.66,11.37,2.75,-1.13,0.73,2.09
2022-12-08 20:19:44.0700,-5.12,7.41,-10.92,-0.92,0.36,1.92
2022-12-08 20:19:44.0800,-3.53,-0.19,-1.92,-1.07,0.01,1.83
2022-12-08 20:19:44.0900,-0.8,-4.85,2.0,-0.93,0.4,1.6
2022-12-08 20:19:44.1000,-2.03,-7.37,-5.53,-0.79,0.08,1.5
2022-12-08 20:19:44.1110,-2.09,-1.25,-0.91,-0.7,-0.03,1.37
2022-12-08 20:19:44.1200,-2.09,-1.25,-0.91,-0.65,-0.03,1.08
2022-12-08 20:19:44.1300,-2.43,-0.16,-0.89,-0.62,0.05,0.81
2022-12-08 20:19:44.1400,-1.77,0.09,-0.32,-0.56,0.08,0.71
2022-12-08 20:19:44.1500,-0.53,-0.25,-1.07,-0.5,0.12,0.7
2022-12-08 20:19:44.1600,0.2,-1.07,-0.94,-0.49,0.17,0.64
2022-12-08 20:19:44.1700,-0.03,-1.45,-0.34,-0.48,0.16,0.5
2022-12-08 20:19:44.1800,-0.83,-0.94,0.13,-0.49,0.04,0.4
2022-12-08 20:19:44.1900,-1.46,-0.11,0.53,-0.48,-0.03,0.32
2022-12-08 20:19:44.2000,-1.19,-0.05,0.51,-0.48,-0.01,0.27
2022-12-08 20:19:44.2100,-0.36,-0.34,0.19,-0.47,0.05,0.27
2022-12-08 20:19:44.2200,0.48,-0.14,0.05,-0.46,0.12,0.29
2022-12-08 20:19:44.2300,0.48,-0.14,0.05,-0.45,0.16,0.27
2022-12-08 20:19:44.2400,0.03,-0.07,0.07,-0.43,0.12,0.25
2022-12-08 20:19:44.2490,-0.58,-0.07,0.1,-0.41,0.06,0.22
2022-12-08 20:19:44.2590,-0.74,-0.02,0.11,-0.4,0.04,0.2
2022-12-08 20:19:44.2690,-0.39,0.02,0.17,-0.4,0.07,0.22
2022-12-08 20:19:44.2790,0.12,0.09,0.2,-0.41,0.11,0.27
2022-12-08 20:19:44.2890,0.58,0.11,0.14,-0.42,0.15,0.32
2022-12-08 20:19:44.2990,0.67,0.05,0.21,-0.43,0.17,0.36
2022-12-08 20:19:44.3090,0.39,0.09,0.33,-0.45,0.15,0.39
2022-12-08 20:19:44.3190,0.03,0.24,0.42,-0.45,0.1,0.41
2022-12-08 20:19:44.3290,-0.2,0.39,0.54,-0.46,0.02,0.44
2022-12-08 20:19:44.3390,-0.29,0.58,0.69,-0.5,-0.0,0.45
2022-12-08 20:19:44.3490,-0.25,0.68,0.53,-0.52,-0.02,0.47
2022-12-08 20:19:44.3590,-0.1,0.68,0.31,-0.56,-0.03,0.52
2022-12-08 20:19:44.3690,0.12,0.63,0.48,-0.6,-0.01,0.56
2022-12-08 20:19:44.3790,0.39,0.29,0.46,-0.62,0.02,0.61
2022-12-08 20:19:44.3890,0.62,-0.1,0.38,-0.65,0.03,0.67
2022-12-08 20:19:44.3990,0.73,-0.27,0.39,-0.68,0.03,0.73
2022-12-08 20:19:44.4090,0.66,-0.38,0.35,-0.72,0.0,0.79
2022-12-08 20:19:44.4190,0.66,-0.58,0.06,-0.78,-0.06,0.88
2022-12-08 20:19:44.4280,0.72,-0.69,-0.03,-0.84,-0.11,0.99
2022-12-08 20:19:44.4390,0.99,-0.68,0.29,-0.9,-0.12,1.09
2022-12-08 20:19:44.4480,1.34,-0.7,0.45,-0.97,-0.15,1.22
2022-12-08 20:19:44.4580,1.5,-0.82,0.59,-1.06,-0.18,1.32
2022-12-08 20:19:44.4680,1.33,-1.07,0.75,-1.14,-0.22,1.41
2022-12-08 20:19:44.4780,1.23,-1.53,0.97,-1.22,-0.22,1.5
2022-12-08 20:19:44.4880,1.26,-2.04,1.44,-1.29,-0.18,1.61
2022-12-08 20:19:44.4980,1.63,-2.42,1.59,-1.37,-0.09,1.74
2022-12-08 20:19:44.5080,2.19,-2.58,1.11,-1.46,-0.08,1.9
2022-12-08 20:19:44.5180,2.67,-2.45,0.77,-1.56,-0.11,2.07
2022-12-08 20:19:44.5280,2.95,-2.61,0.97,-1.66,-0.14,2.22
2022-12-08 20:19:44.5380,3.33,-3.5,1.77,-1.77,-0.05,2.39
2022-12-08 20:19:44.5480,4.13,-4.54,2.56,-1.87,0.13,2.56
2022-12-08 20:19:44.5580,5.07,-5.41,3.13,-1.98,0.39,2.71
2022-12-08 20:19:44.5680,5.97,-6.36,4.01,-2.09,0.75,2.86
2022-12-08 20:19:44.5780,6.88,-7.0,4.78,-2.2,1.25,3.02
2022-12-08 20:19:44.5880,7.68,-7.4,5.16,-2.33,1.74,3.11
2022-12-08 20:19:44.5980,8.41,-8.2,5.23,-2.47,1.97,3.1
2022-12-08 20:19:44.6080,9.51,-9.67,6.69,-2.64,2.18,3.15
2022-12-08 20:19:44.6170,10.2,-10.71,6.84,-2.7,2.45,3.24
2022-12-08 20:19:44.6280,9.94,-10.94,5.68,-2.72,2.6,3.28
2022-12-08 20:19:44.6380,8.27,-10.72,5.57,-2.77,2.29,3.16
2022-12-08 20:19:44.6480,6.39,-10.4,6.16,-2.62,1.89,2.92
2022-12-08 20:19:44.6570,4.92,-10.88,8.11,-2.46,1.64,2.67
2022-12-08 20:19:44.6670,2.31,-10.86,8.48,-2.24,1.42,2.37
2022-12-08 20:19:44.6770,-0.91,-10.8,8.87,-1.93,0.48,2.0
2022-12-08 20:19:44.6870,-1.69,-10.23,11.2,-1.58,-0.52,1.36
2022-12-08 20:19:44.6970,0.97,-8.03,12.66,-1.27,-0.94,0.67
2022-12-08 20:19:44.7070,4.67,-3.79,11.02,-1.08,-0.89,0.19
2022-12-08 20:19:44.7170,7.71,-0.48,8.41,-0.83,-0.78,-0.09
2022-12-08 20:19:44.7270,8.62,0.53,6.85,-0.48,-0.6,-0.37
2022-12-08 20:19:44.7370,9.23,0.87,5.2,-0.23,-0.87,-0.72
2022-12-08 20:19:44.7470,10.52,1.98,7.26,0.07,-0.91,-1.1
2022-12-08 20:19:44.7570,10.26,2.92,6.52,0.38,-0.95,-1.45
2022-12-08 20:19:44.7670,9.17,3.1,6.11,0.62,-1.07,-1.73
2022-12-08 20:19:44.7770,7.79,2.6601223486661913,6.6,0.88,-1.23,-1.98
2022-12-08 20:19:44.7870,6.46,2.66,6.6,1.14,-1.46,-2.22
2022-12-08 20:19:44.7970,5.45,2.78,6.69,1.39,-1.67,-2.48
2022-12-08 20:19:44.8070,4.76,3.0,6.82,1.62,-1.81,-2.74
2022-12-08 20:19:44.8160,4.48,3.16,6.86,1.83,-1.9,-3.0
2022-12-08 20:19:44.8270,4.49,3.34,6.85,2.02,-1.96,-3.27
2022-12-08 20:19:44.8370,4.68,3.18,6.7,2.17,-1.96,-3.55
2022-12-08 20:19:44.8460,4.8,2.61,6.26,2.3,-1.86,-3.85
2022-12-08 20:19:44.8560,4.66,1.96,5.38,2.44,-1.73,-4.14
2022-12-08 20:19:44.8660,4.29,1.41,4.65,2.57,-1.56,-4.39
2022-12-08 20:19:44.8760,3.85,0.99,4.36,2.68,-1.33,-4.6
2022-12-08 20:19:44.8860,3.29,0.55,3.74,2.8,-1.1,-4.79
2022-12-08 20:19:44.8960,2.52,0.02,3.05,2.93,-0.97,-4.96
2022-12-08 20:19:44.9060,0.3,-1.31,2.41,3.06,-0.94,-5.09
2022-12-08 20:19:44.9160,0.3,-1.31,2.41,3.19,-1.04,-5.16
2022-12-08 20:19:44.9260,-0.95,-2.01,1.85,3.26,-1.12,-5.2
2022-12-08 20:19:44.9360,-1.67,-2.85,1.28,3.27,-1.17,-5.28
2022-12-08 20:19:44.9460,-1.52,-4.11,0.97,3.27,-1.04,-5.38
2022-12-08 20:19:44.9560,-1.24,-5.85,0.32,3.29,-0.64,-5.42
2022-12-08 20:19:44.9660,-2.05,-7.99,-0.66,3.34,-0.16,-5.37
2022-12-08 20:19:44.9760,-4.36,-10.07,-1.38,3.4,0.04,-5.29
2022-12-08 20:19:44.9870,-7.43,-11.56,-1.29,3.39,-0.1,-5.17
2022-12-08 20:19:44.9970,-12.06,-12.99,-3.27,3.31,-0.33,-5.0
2022-12-08 20:19:45.0070,-12.06,-12.99,-3.27,3.06,-0.49,-4.77
2022-12-08 20:19:45.0160,-12.57,-13.44,-5.72,2.7,-0.44,-4.48
2022-12-08 20:19:45.0260,-12.26,-13.27,-8.07,2.33,-0.24,-4.03
2022-12-08 20:19:45.0350,-12.51,-12.05,-8.99,2.02,0.05,-3.43
2022-12-08 20:19:45.0450,-13.92,-10.0,-8.82,1.73,0.4,-2.8
2022-12-08 20:19:45.0550,-16.12,-7.96,-8.49,1.37,0.71,-2.17
2022-12-08 20:19:45.0650,-18.39,-6.39,-8.76,0.93,0.85,-1.5
2022-12-08 20:19:45.0750,-19.41,-4.82,-9.97,0.47,0.87,-0.69
2022-12-08 20:19:45.0850,-19.09,-2.44,-11.45,0.01,0.71,0.07
2022-12-08 20:19:45.0950,-18.23,-1.06,-12.0,-0.39,0.48,0.7
2022-12-08 20:19:45.1050,-17.37,-1.34,-11.43,-0.68,0.2,1.24
2022-12-08 20:19:45.1150,-16.64,-2.12,-9.94,-0.82,-0.26,1.58
2022-12-08 20:19:45.1250,-13.34,-3.66,-6.25,-0.99,-0.83,2.07
2022-12-08 20:19:45.1350,-13.31,-3.94,-7.32,-1.05,-1.2,2.48
2022-12-08 20:19:45.1450,-10.1,-5.74,-4.35,-0.83,-2.01,2.45
2022-12-08 20:19:45.1550,-0.46,-4.77,11.99,0.19,-3.13,2.45
2022-12-08 20:19:45.1650,-0.46,-4.77,11.99,-0.8,-5.63,1.94
2022-12-08 20:19:45.1760,20.87,-4.85,21.61,-1.22,-1.44,1.15
2022-12-08 20:19:45.1850,31.26,-10.6,-19.76,-0.1,1.79,2.2
2022-12-08 20:19:45.1950,14.53,-8.71,-20.62,0.04,2.38,3.91
2022-12-08 20:19:45.2050,-6.64,-11.72,2.41,-0.87,2.02,4.81
2022-12-08 20:19:45.2140,-18.42,-6.82,2.78,-0.71,-0.26,4.49
2022-12-08 20:19:45.2250,-12.17,6.29,0.84,-0.73,-1.09,2.95
2022-12-08 20:19:45.2350,-12.17,6.29,0.84,-0.59,-0.89,1.89
2022-12-08 20:19:45.2440,-6.21,0.54,-6.45,-0.6,-0.86,1.61
2022-12-08 20:19:45.2540,1.72,-6.47,-4.46,-0.69,0.03,1.64
2022-12-08 20:19:45.2640,1.72,-6.47,-4.46,-0.42,0.31,1.7
2022-12-08 20:19:45.2740,2.05,-5.95,-4.17,-0.4,0.46,1.63
2022-12-08 20:19:45.2840,0.0,-2.35,-1.35,-0.35,0.47,1.31
2022-12-08 20:19:45.2940,-2.46,0.04,-1.05,-0.28,0.15,0.99
2022-12-08 20:19:45.3040,-2.87,0.31,-0.06,-0.22,-0.12,0.83
2022-12-08 20:19:45.3140,-2.12,-0.46,-0.16,-0.18,-0.23,0.78
2022-12-08 20:19:45.3240,-1.1,-1.23,-0.22,-0.17,-0.17,0.69
2022-12-08 20:19:45.3340,-0.29,-1.26,0.27,-0.16,-0.04,0.55
2022-12-08 20:19:45.3440,-0.18,-0.62,0.19,-0.15,0.06,0.47
2022-12-08 20:19:45.3540,0.11,-0.03,0.14,-0.15,0.14,0.46
2022-12-08 20:19:45.3640,0.11,-0.03,0.14,-0.13,0.24,0.49
2022-12-08 20:19:45.3740,0.51,-0.19,-0.04,-0.13,0.29,0.5
2022-12-08 20:19:45.3830,0.37,-0.2,0.17,-0.14,0.25,0.45
2022-12-08 20:19:45.3930,-0.4,-0.11,0.4,-0.14,0.13,0.37
2022-12-08 20:19:45.4040,-1.26,0.06,0.61,-0.16,0.02,0.3
2022-12-08 20:19:45.4140,-1.26,0.06,0.61,-0.17,-0.01,0.28
2022-12-08 20:19:45.4230,-0.61,0.21,0.35,-0.18,0.09,0.29
2022-12-08 20:19:45.4330,0.2,0.32,0.01,-0.18,0.23,0.33
2022-12-08 20:19:45.4430,0.77,0.25,-0.19,-0.18,0.35,0.36
2022-12-08 20:19:45.4530,0.88,0.14,-0.22,-0.17,0.39,0.37
2022-12-08 20:19:45.4630,0.42,0.14,-0.16,-0.17,0.32,0.37
2022-12-08 20:19:45.4730,-0.25,0.19,0.12,-0.18,0.23,0.35
2022-12-08 20:19:45.4830,-0.73,0.23,0.21,-0.18,0.15,0.34
2022-12-08 20:19:45.4930,-0.78,0.41,0.18,-0.19,0.13,0.34
2022-12-08 20:19:45.5030,-0.44,0.67,0.04,-0.2,0.17,0.37
2022-12-08 20:19:45.5130,0.08,0.68,-0.23,-0.22,0.22,0.43
2022-12-08 20:19:45.5230,0.52,0.54,-0.28,-0.24,0.25,0.5
2022-12-08 20:19:45.5330,0.76,0.42,-0.31,-0.25,0.22,0.58
2022-12-08 20:19:45.5430,0.85,0.28,-0.22,-0.25,0.13,0.67
2022-12-08 20:19:45.5530,0.84,0.08,-0.09,-0.27,0.07,0.74
2022-12-08 20:19:45.5630,0.69,-0.16,0.03,-0.31,0.0,0.85
2022-12-08 20:19:45.5730,0.72,-0.13,0.14,-0.37,-0.01,0.98
2022-12-08 20:19:45.5830,1.0,0.13,0.3,-0.45,0.02,1.13
2022-12-08 20:19:45.5930,1.45,0.22,0.78,-0.54,0.11,1.28
2022-12-08 20:19:45.6030,1.87,0.18,1.26,-0.66,0.2,1.43
2022-12-08 20:19:45.6120,2.04,-0.05,1.31,-0.75,0.25,1.58
2022-12-08 20:19:45.6220,1.97,-0.37,1.17,-0.85,0.24,1.73
2022-12-08 20:19:45.6320,1.62,-0.61,1.09,-0.93,0.19,1.85
2022-12-08 20:19:45.6420,1.41,-1.14,1.1,-0.98,0.16,1.96
2022-12-08 20:19:45.6520,1.47,-1.87,0.91,-1.06,0.15,2.08
2022-12-08 20:19:45.6620,1.71,-2.29,0.59,-1.14,0.18,2.18
2022-12-08 20:19:45.6720,2.51,-3.08,0.7,-1.2,0.26,2.28
2022-12-08 20:19:45.6820,2.76,-3.92,1.52,-1.27,0.4,2.38
2022-12-08 20:19:45.6920,3.11,-4.68,2.2,-1.34,0.58,2.49
2022-12-08 20:19:45.7020,3.11,-4.68,2.2,-1.41,0.76,2.62
2022-12-08 20:19:45.7120,3.69,-5.03,2.73,-1.5,0.95,2.73
2022-12-08 20:19:45.7220,4.44,-5.39,2.94,-1.6,1.11,2.83
2022-12-08 20:19:45.7320,5.43,-6.19,2.64,-1.69,1.16,2.95
2022-12-08 20:19:45.7420,6.14,-7.29,3.52,-1.74,1.31,3.09
2022-12-08 20:19:45.7520,6.93,-9.05,4.37,-1.81,1.61,3.26
2022-12-08 20:19:45.7620,8.08,-10.64,3.94,-1.88,1.98,3.46
2022-12-08 20:19:45.7730,9.08,-11.48,3.18,-1.94,2.2,3.58
2022-12-08 20:19:45.7830,9.56,-12.33,3.09,-2.07,2.32,3.63
2022-12-08 20:19:45.7930,9.62,-12.94,3.13,-2.21,2.4,3.62
2022-12-08 20:19:45.8020,10.12,-12.62,3.2,-2.28,2.45,3.5
2022-12-08 20:19:45.8110,10.6,-11.7,4.09,-2.14,2.4,3.24
2022-12-08 20:19:45.8210,10.42,-10.36,6.07,-1.93,2.08,2.91
2022-12-08 20:19:45.8310,9.36,-8.09,7.94,-1.65,2.05,2.55
2022-12-08 20:19:45.8410,7.08,-5.33,7.84,-1.29,1.92,2.06
2022-12-08 20:19:45.8510,4.29,-3.99,7.67,-1.09,1.4,1.44
2022-12-08 20:19:45.8610,2.96,-3.21,8.23,-0.83,0.95,0.69
2022-12-08 20:19:45.8710,3.58,-2.51,8.08,-0.54,0.64,0.02
2022-12-08 20:19:45.8810,5.54,-1.84,7.04,-0.38,0.23,-0.12
2022-12-08 20:19:45.8910,4.61,0.43,9.14,-0.15,0.45,-0.27
2022-12-08 20:19:45.9010,4.29,1.34,4.01,0.17,0.09,-0.64
2022-12-08 20:19:45.9110,7.51,2.42,4.76,0.42,-0.45,-1.1
2022-12-08 20:19:45.9210,11.95,3.8,4.99,0.63,-0.37,-1.57
2022-12-08 20:19:45.9310,11.95,3.8,4.99,0.8,0.05,-1.93
2022-12-08 20:19:45.9410,10.84,3.61,2.77,0.98,0.13,-2.2
2022-12-08 20:19:45.9510,8.77,3.47,2.68,1.17,-0.14,-2.44
2022-12-08 20:19:45.9600,6.8,3.44,3.19,1.39,-0.51,-2.7
2022-12-08 20:19:45.9710,5.25,3.35,3.07,1.61,-0.89,-2.94
2022-12-08 20:19:45.9800,4.42,3.25,3.3,1.8,-1.22,-3.16
2022-12-08 20:19:45.9900,4.16,3.1,3.74,1.96,-1.44,-3.41
2022-12-08 20:19:46.0000,4.21,2.86,3.93,2.07,-1.48,-3.69
2022-12-08 20:19:46.0100,4.64,2.47,3.79,2.17,-1.41,-3.97
2022-12-08 20:19:46.0200,5.35,1.38,3.09,2.27,-1.22,-4.23
2022-12-08 20:19:46.0300,5.2,0.49,2.26,2.36,-0.86,-4.5
2022-12-08 20:19:46.0400,5.2,0.49,2.26,2.44,-0.41,-4.72
2022-12-08 20:19:46.0500,4.55,-0.33,1.65,2.52,-0.02,-4.86
2022-12-08 20:19:46.0600,3.57,-1.14,0.84,2.61,0.27,-4.93
2022-12-08 20:19:46.0700,2.4,-1.95,0.03,2.71,0.41,-4.94
2022-12-08 20:19:46.0800,1.1,-2.71,-0.9,2.83,0.34,-4.87
2022-12-08 20:19:46.0900,-0.35,-3.11,-1.3,2.91,0.11,-4.79
2022-12-08 20:19:46.1000,-1.79,-3.46,-1.38,2.97,-0.16,-4.74
2022-12-08 20:19:46.1100,-2.77,-4.01,-1.44,2.97,-0.41,-4.72
2022-12-08 20:19:46.1200,-3.2,-4.92,-1.49,2.97,-0.59,-4.71
2022-12-08 20:19:46.1300,-3.73,-6.1,-1.66,3.01,-0.63,-4.69
2022-12-08 20:19:46.1390,-5.0,-7.7,-2.11,3.0,-0.73,-4.68
2022-12-08 20:19:46.1500,-6.83,-9.23,-1.95,2.94,-0.89,-4.66
2022-12-08 20:19:46.1600,-8.68,-10.16,-2.16,2.85,-1.01,-4.55
2022-12-08 20:19:46.1700,-10.41,-10.54,-3.44,2.69,-1.12,-4.31
2022-12-08 20:19:46.1800,-12.02,-10.45,-4.88,2.46,-1.22,-3.96
2022-12-08 20:19:46.1890,-13.27,-9.97,-6.32,2.15,-1.21,-3.54
2022-12-08 20:19:46.1990,-14.0,-9.21,-7.13,1.83,-1.01,-3.1
2022-12-08 20:19:46.2090,-14.74,-8.33,-7.07,1.55,-0.66,-2.55
2022-12-08 20:19:46.2190,-15.86,-7.2,-6.25,1.27,-0.25,-1.92
2022-12-08 20:19:46.2290,-17.37,-5.97,-5.55,0.95,0.07,-1.27
2022-12-08 20:19:46.2390,-18.28,-4.81,-5.58,0.61,0.31,-0.67
2022-12-08 20:19:46.2490,-17.74,-3.43,-6.63,0.24,0.51,-0.12
2022-12-08 20:19:46.2590,-16.46,-2.01,-7.98,-0.11,0.57,0.48
2022-12-08 20:19:46.2690,-15.44,-0.57,-7.82,-0.42,0.55,1.04
2022-12-08 20:19:46.2790,-15.44,-0.57,-7.82,-0.68,0.54,1.47
2022-12-08 20:19:46.2890,-15.08,-1.25,-7.01,-0.88,0.59,1.82
2022-12-08 20:19:46.2990,-14.13,-2.04,-6.03,-1.06,0.49,2.15
2022-12-08 20:19:46.3090,-12.48,-2.54,-4.96,-1.01,0.23,2.36
2022-12-08 20:19:46.3190,-10.22,-3.08,-3.51,-0.63,-0.63,2.19
2022-12-08 20:19:46.3290,-3.14,-3.54,2.4,-0.34,-3.07,1.46
2022-12-08 20:19:46.3390,31.77,-6.97,6.85,-0.78,-3.39,0.28
2022-12-08 20:19:46.3490,31.77,-6.97,6.85,-0.7,0.92,0.82
2022-12-08 20:19:46.3580,27.19,-3.87,-17.75,-0.22,2.77,2.75
2022-12-08 20:19:46.3680,2.82,-4.26,-7.78,-0.75,4.11,4.55
2022-12-08 20:19:46.3780,-15.4,-8.95,-1.75,-0.74,2.28,5.12
2022-12-08 20:19:46.3880,-21.87,-3.76,-1.68,-0.55,-0.88,3.34
2022-12-08 20:19:46.3980,-14.67,-1.45,8.0,-0.35,-1.13,1.8
2022-12-08 20:19:46.4080,-9.72,-0.99,-1.93,-0.3,-1.46,1.43
2022-12-08 20:19:46.4180,-5.18,-1.12,-1.38,-0.32,-0.87,1.54
2022-12-08 20:19:46.4280,-0.25,-1.08,-0.54,-0.31,-0.22,1.66
2022-12-08 20:19:46.4380,2.66,-1.42,-2.43,-0.33,0.07,1.54
2022-12-08 20:19:46.4480,2.69,-1.52,-0.24,-0.34,0.38,1.31
2022-12-08 20:19:46.4580,-0.04,-0.81,-0.58,-0.31,0.2,1.17
2022-12-08 20:19:46.4680,-2.8,-0.12,-0.26,-0.29,-0.07,0.97
2022-12-08 20:19:46.4780,-2.59,-0.91,0.41,-0.25,-0.08,0.85
2022-12-08 20:19:46.4880,-1.13,-1.08,-0.51,-0.23,-0.01,0.8
2022-12-08 20:19:46.4980,-0.06,-0.57,-0.39,-0.2,0.09,0.73
2022-12-08 20:19:46.5080,0.14,-0.36,0.03,-0.19,0.12,0.63
2022-12-08 20:19:46.5180,-0.4,-0.39,0.26,-0.15,0.09,0.55
2022-12-08 20:19:46.5280,-0.98,-0.56,0.1,-0.13,0.03,0.5
2022-12-08 20:19:46.5380,-0.7,-0.66,-0.05,-0.1,0.07,0.48
2022-12-08 20:19:46.5480,0.13,-0.48,-0.07,-0.1,0.17,0.49
2022-12-08 20:19:46.5580,0.56,-0.15,0.04,-0.1,0.3,0.47
2022-12-08 20:19:46.5680,0.41,-0.13,0.31,-0.09,0.36,0.45
2022-12-08 20:19:46.5780,-0.04,-0.15,0.27,-0.09,0.34,0.42
2022-12-08 20:19:46.5880,-0.4,-0.2,0.12,-0.09,0.32,0.4
2022-12-08 20:19:46.5980,-0.4,-0.2,0.12,-0.09,0.28,0.4
2022-12-08 20:19:46.6070,-0.17,-0.11,0.13,-0.09,0.27,0.42
2022-12-08 20:19:46.6170,0.28439106423407795,0.15,0.4,-0.1,0.29,0.44
2022-12-08 20:19:46.6270,0.28,0.15,0.4,-0.09,0.35,0.45
2022-12-08 20:19:46.6370,0.32,0.23,0.53,-0.09,0.39,0.47
2022-12-08 20:19:46.6470,0.24,0.37,0.62,-0.12,0.4,0.48
2022-12-08 20:19:46.6570,0.11,0.49,0.5,-0.14,0.4,0.51
2022-12-08 20:19:46.6670,-0.36,0.68,0.82,-0.16,0.37,0.53
2022-12-08 20:19:46.6770,-0.36,0.68,0.82,-0.19,0.35,0.56
2022-12-08 20:19:46.6870,-0.26,0.75,0.62,-0.22,0.34,0.59
2022-12-08 20:19:46.6970,-0.04,0.76,0.14,-0.25,0.31,0.62
2022-12-08 20:19:46.7070,0.05,0.75,0.08,-0.28,0.29,0.66
2022-12-08 20:19:46.7170,0.28,0.61,-0.13,-0.3,0.3,0.71
2022-12-08 20:19:46.7280,0.56,0.31,-0.28,-0.32,0.26,0.79
2022-12-08 20:19:46.7370,0.74,0.0,-0.21,-0.35,0.22,0.87
2022-12-08 20:19:46.7470,0.74,0.0,-0.21,-0.39,0.16,0.93
2022-12-08 20:19:46.7570,0.55,-0.15,0.06,-0.41,0.15,0.98
2022-12-08 20:19:46.7660,0.54,-0.34,0.32,-0.45,0.18,1.05
2022-12-08 20:19:46.7760,0.84,-0.44,0.36,-0.48,0.21,1.16
2022-12-08 20:19:46.7860,1.29,-0.46,0.22,-0.52,0.24,1.28
2022-12-08 20:19:46.7960,1.45,-0.47,0.16,-0.57,0.22,1.4
2022-12-08 20:19:46.8060,1.39,-0.61,0.29,-0.65,0.16,1.52
2022-12-08 20:19:46.8160,1.42,-0.8,0.6516762044280767,-0.72,0.09,1.64
2022-12-08 20:19:46.8260,1.55,-1.08,0.65,-0.8,0.06,1.75
2022-12-08 20:19:46.8360,1.68,-1.64,0.79,-0.85,0.07,1.85
2022-12-08 20:19:46.8460,1.87,-2.25,0.85,-0.92,0.12,1.99
2022-12-08 20:19:46.8560,2.19,-2.5,0.75,-1.0,0.16,2.15
2022-12-08 20:19:46.8660,2.37,-2.59,0.78,-1.08,0.18,2.28
2022-12-08 20:19:46.8760,2.4,-2.87,1.41,-1.17,0.23,2.39
2022-12-08 20:19:46.8860,2.66,-3.67,2.3,-1.24,0.37,2.51
2022-12-08 20:19:46.8960,3.37,-4.42,2.68,-1.33,0.55,2.65
2022-12-08 20:19:46.9060,4.42,-4.89,2.4,-1.48,0.7,2.79
2022-12-08 20:19:46.9160,5.42,-5.61,1.81,-1.61,0.66,2.9
2022-12-08 20:19:46.9260,6.1,-7.17,3.21,-1.7,0.98,3.02
2022-12-08 20:19:46.9360,9.25,-10.83,3.61,-1.77,1.39,3.26
2022-12-08 20:19:46.9460,9.25,-10.83,3.61,-1.83,1.72,3.54
2022-12-08 20:19:46.9570,10.91,-11.19,3.35,-1.94,1.91,3.67
2022-12-08 20:19:46.9660,10.78,-12.5,2.72,-2.0,2.02,3.73
2022-12-08 20:19:46.9760,9.43,-13.94,2.89,-2.18,1.94,3.79
2022-12-08 20:19:46.9860,8.11,-13.93,4.4,-2.36,1.67,3.65
2022-12-08 20:19:46.9950,8.81,-12.88,5.98,-2.21,1.74,3.37
2022-12-08 20:19:47.0050,9.69,-11.31,7.65,-1.97,1.98,3.09
2022-12-08 20:19:47.0150,8.6,-8.31,7.209650228619576,-1.63,1.98,2.67
2022-12-08 20:19:47.0250,7.12,-6.38,7.2,-1.31,1.65,2.08
2022-12-08 20:19:47.0350,6.48,-5.39,9.17,-1.13,1.36,1.43
2022-12-08 20:19:47.0450,6.1,-3.21,8.75,-0.83,1.28,0.74
2022-12-08 20:19:47.0550,6.05,-1.6,7.33,-0.53,1.24,0.2
2022-12-08 20:19:47.0650,6.06,-0.84,6.26,-0.3,1.0,0.02
2022-12-08 20:19:47.0750,4.6,-0.06,7.35,-0.13,0.86,-0.14
2022-12-08 20:19:47.0850,3.06,0.27,5.26,0.15,0.54,-0.5
2022-12-08 20:19:47.0950,5.4,1.31,3.7,0.38,-0.04,-0.95
2022-12-08 20:19:47.1050,9.47,2.85,6.05,0.62,-0.18,-1.42
2022-12-08 20:19:47.1150,11.69,3.36,5.29,0.81,0.13,-1.84
2022-12-08 20:19:47.1250,11.04,2.93,3.42,0.99,0.31,-2.18
2022-12-08 20:19:47.1340,8.78,2.44,2.95,1.21,-0.05,-2.48
2022-12-08 20:19:47.1440,6.55,2.47,3.93,1.41,-0.68,-2.79
2022-12-08 20:19:47.1550,5.05,2.63,4.57,1.59,-1.22,-3.08
2022-12-08 20:19:47.1650,4.36,2.69,4.14,1.76,-1.62,-3.37
2022-12-08 20:19:47.1750,4.48,2.67,3.65,1.9,-1.81,-3.66
2022-12-08 20:19:47.1850,4.97,2.06,3.37,2.01,-1.78,-3.93
2022-12-08 20:19:47.1940,4.73,1.5,3.34,2.09,-1.67,-4.19
2022-12-08 20:19:47.2040,4.73,1.5,3.34,2.16,-1.54,-4.46
2022-12-08 20:19:47.2140,3.64,0.29,2.73,2.24,-1.34,-4.75
2022-12-08 20:19:47.2240,3.64,0.29,2.73,2.34,-1.17,-4.96
2022-12-08 20:19:47.2340,2.58,-0.44,2.33,2.42,-1.09,-5.08
2022-12-08 20:19:47.2440,1.21,-1.17,1.8,2.53,-1.12,-5.15
2022-12-08 20:19:47.2540,-0.19,-1.93,1.26,2.62,-1.27,-5.18
2022-12-08 20:19:47.2640,-1.57,-2.57,0.99,2.66,-1.47,-5.17
2022-12-08 20:19:47.2740,-2.9,-3.09,0.53,2.66,-1.72,-5.15
2022-12-08 20:19:47.2840,-3.98,-3.84,0.08,2.63,-1.91,-5.1
2022-12-08 20:19:47.2940,-5.1,-4.64,-0.25,2.58,-2.08,-5.04
2022-12-08 20:19:47.3040,-6.31,-5.47,-0.29,2.55,-2.22,-4.97
2022-12-08 20:19:47.3140,-7.37,-6.44,0.02,2.54,-2.34,-4.9
2022-12-08 20:19:47.3240,-8.33,-7.38,0.41,2.49,-2.39,-4.82
2022-12-08 20:19:47.3340,-9.15,-8.09,0.6,2.38,-2.29,-4.7
2022-12-08 20:19:47.3440,-9.72,-8.64,0.25,2.24,-1.99,-4.54
2022-12-08 20:19:47.3540,-9.93,-8.75,-0.71,2.08,-1.57,-4.31
2022-12-08 20:19:47.3640,-10.14,-8.54,-1.8,1.88,-1.11,-3.98
2022-12-08 20:19:47.3730,-10.58,-8.24,-2.78,1.67,-0.64,-3.54
2022-12-08 20:19:47.3830,-10.97,-7.45,-3.45,1.45,-0.12,-3.08
2022-12-08 20:19:47.3930,-11.24,-6.11,-3.72,1.22,0.48,-2.69
2022-12-08 20:19:47.4030,-11.54,-4.82,-3.89,1.03,1.04,-2.28
2022-12-08 20:19:47.4130,-12.24,-3.96,-3.62,0.86,1.51,-1.79
2022-12-08 20:19:47.4230,-13.47,-3.42,-3.49,0.66,1.84,-1.26
2022-12-08 20:19:47.4330,-14.35,-2.88,-3.89,0.44,2.02,-0.8
2022-12-08 20:19:47.4430,-14.29,-2.31,-4.52,0.22,2.07,-0.34
2022-12-08 20:19:47.4530,-13.98,-1.79,-5.28,-0.01,1.9,0.15
2022-12-08 20:19:47.4630,-13.95,-1.3,-5.5,-0.21,1.63,0.57
2022-12-08 20:19:47.4730,-12.81,-1.77,-5.3,-0.38,1.4,0.94
2022-12-08 20:19:47.4830,-12.81,-1.77,-5.3,-0.51,1.21,1.27
2022-12-08 20:19:47.4930,-11.75,-1.91,-4.92,-0.63,1.13,1.55
2022-12-08 20:19:47.5030,-10.48,-1.96,-4.71,-0.73,1.07,1.77
2022-12-08 20:19:47.5130,-9.55,-2.12,-4.69,-0.88,0.7,2.04
2022-12-08 20:19:47.5230,-9.07,-1.86,-4.43,-0.92,0.08,2.18
2022-12-08 20:19:47.5330,-8.93,-1.93,-5.57,-0.74,-0.78,1.92
2022-12-08 20:19:47.5430,-5.27,-3.66,-5.13,-0.36,-2.05,1.53
2022-12-08 20:19:47.5530,3.51,-3.02,-0.98,-0.17,-4.82,1.12
2022-12-08 20:19:47.5630,17.84,-3.14,10.84,-0.33,-3.56,0.48
2022-12-08 20:19:47.5720,30.59,-8.33,1.57,-0.04,1.76,1.52
2022-12-08 20:19:47.5820,15.65,-7.05,-13.18,-0.44,4.79,3.44
2022-12-08 20:19:47.5920,-8.81,-8.64,-3.77,-0.55,4.0,5.32
2022-12-08 20:19:47.6020,-24.45,-5.18,-1.37,-0.74,-1.05,4.79
2022-12-08 20:19:47.6120,-21.33,-0.78,8.88,-0.46,-2.28,2.26
2022-12-08 20:19:47.6220,-9.35,-1.74,0.98,-0.36,-1.93,0.96
2022-12-08 20:19:47.6320,-2.15,1.71,-1.57,-0.4,-0.73,0.93
2022-12-08 20:19:47.6420,1.98,2.14,-0.2,-0.31,0.4,1.49
2022-12-08 20:19:47.6520,4.05,-0.38,-5.09,-0.24,0.54,1.8
2022-12-08 20:19:47.6620,3.14,-3.39,-2.43,-0.22,0.6,1.66
2022-12-08 20:19:47.6720,-0.65,-4.1,-0.73,-0.18,0.13,1.41
2022-12-08 20:19:47.6820,-3.44,-1.64,-0.64,-0.14,-0.35,1.08
2022-12-08 20:19:47.6920,-3.55,-0.45,-0.27,-0.13,-0.42,0.84
2022-12-08 20:19:47.7020,-2.39,-0.29,0.03,-0.16,-0.26,0.7
2022-12-08 20:19:47.7120,-0.77,-0.02,-0.39,-0.14,0.04,0.63
2022-12-08 20:19:47.7220,0.46,0.07,-0.39,-0.13,0.25,0.66
2022-12-08 20:19:47.7320,0.78,0.02,-0.09,-0.13,0.4,0.71
2022-12-08 20:19:47.7410,0.72,-0.37,0.02,-0.11,0.43,0.7
2022-12-08 20:19:47.7510,0.29,-0.58,0.0,-0.11,0.35,0.62
2022-12-08 20:19:47.7610,-0.45,-0.38,0.36,-0.1,0.24,0.53
2022-12-08 20:19:47.7710,-1.09,-0.15,0.47,-0.11,0.18,0.45
2022-12-08 20:19:47.7810,-1.13,-0.18,0.56,-0.11,0.17,0.4
2022-12-08 20:19:47.7910,-0.66,-0.14,0.37,-0.11,0.23,0.4
2022-12-08 20:19:47.8010,-0.09,0.09,0.05,-0.12,0.3,0.42
2022-12-08 20:19:47.8110,0.62,-0.06,0.13,-0.13,0.41,0.43
2022-12-08 20:19:47.8210,0.62,-0.06,0.13,-0.13,0.5,0.43
2022-12-08 20:19:47.8310,0.5,-0.09,0.23,-0.15,0.53,0.42
2022-12-08 20:19:47.8410,0.27,-0.05,0.32,-0.17,0.53,0.41
2022-12-08 20:19:47.8510,0.05,0.0,0.49,-0.18,0.56,0.42
2022-12-08 20:19:47.8610,-0.01,0.11,0.61,-0.19,0.56,0.43
2022-12-08 20:19:47.8710,0.04,0.28,0.55,-0.2,0.55,0.45
2022-12-08 20:19:47.8810,0.08,0.43,0.46,-0.21,0.54,0.49
2022-12-08 20:19:47.8910,0.07,0.48,0.35,-0.24,0.49,0.52
2022-12-08 20:19:47.9010,0.07,0.43,0.2,-0.26,0.44,0.57
2022-12-08 20:19:47.9110,0.23,0.27,-0.02,-0.26,0.44,0.64
2022-12-08 20:19:47.9210,0.62,0.17,-0.18,-0.3,0.43,0.71
2022-12-08 20:19:47.9310,0.93,0.26,-0.12,-0.3,0.43,0.76
2022-12-08 20:19:47.9410,1.04,0.28,-0.3,-0.31,0.45,0.8
2022-12-08 20:19:47.9510,0.84,0.06,-0.44,-0.32,0.46,0.84
2022-12-08 20:19:47.9610,0.51,-0.28,-0.53,-0.32,0.43,0.89
2022-12-08 20:19:47.9710,0.42,-0.49,-0.41,-0.34,0.41,0.96
2022-12-08 20:19:47.9800,0.54,-0.41,-0.03,-0.36,0.37,1.05
2022-12-08 20:19:47.9900,0.71,-0.18,0.12,-0.41,0.3,1.15
2022-12-08 20:19:48.0000,0.81,-0.21,0.54,-0.46,0.25,1.25
2022-12-08 20:19:48.0100,0.98,-0.4,0.76,-0.51,0.24,1.36
2022-12-08 20:19:48.0200,1.2,-0.8,0.69,-0.57,0.26,1.47
2022-12-08 20:19:48.0300,1.57,-1.29,0.52,-0.62,0.29,1.6
2022-12-08 20:19:48.0400,1.81,-1.48,0.3,-0.67,0.29,1.72
2022-12-08 20:19:48.0500,1.91,-1.58,0.38,-0.72,0.24,1.84
2022-12-08 20:19:48.0600,1.87,-1.73,0.67,-0.78,0.17,1.95
2022-12-08 20:19:48.0700,1.68,-1.95,0.85,-0.85,0.09,2.04
2022-12-08 20:19:48.0800,1.62,-2.52,1.1,-0.91,0.09,2.12
2022-12-08 20:19:48.0900,1.95,-3.23,1.51,-0.97,0.2,2.21
2022-12-08 20:19:48.1000,2.66,-3.83,1.96,-1.02,0.38,2.32
2022-12-08 20:19:48.1100,4.36,-4.53,2.05,-1.08,0.61,2.44
2022-12-08 20:19:48.1200,4.36,-4.53,2.05,-1.16,0.84,2.54
2022-12-08 20:19:48.1300,5.03,-5.05,1.48,-1.33,0.83,2.6
2022-12-08 20:19:48.1390,5.96,-6.12,1.25,-1.43,0.91,2.64
2022-12-08 20:19:48.1490,6.96,-8.27,2.58,-1.49,1.3,2.81
2022-12-08 20:19:48.1600,10.63,-10.14,1.98,-1.54,1.83,3.12
2022-12-08 20:19:48.1690,10.63,-10.14,1.98,-1.65,2.43,3.36
2022-12-08 20:19:48.1790,11.76,-10.55,0.6,-1.68,2.78,3.42
2022-12-08 20:19:48.1900,10.46,-11.74,1.84,-1.68,2.75,3.46
2022-12-08 20:19:48.1990,10.46,-11.74,1.84,-1.69,2.4,3.51
2022-12-08 20:19:48.2090,8.26,-11.08,3.42,-1.78,1.86,3.54
2022-12-08 20:19:48.2190,5.82,-9.66,4.77,-1.74,1.3,3.44
2022-12-08 20:19:48.2290,3.58,-8.42,6.56,-1.72,1.0,3.1
2022-12-08 20:19:48.2390,2.73,-8.12,6.76,-1.68,0.8,2.6
2022-12-08 20:19:48.2490,3.65,-8.26,6.92,-1.52,0.6,2.02
2022-12-08 20:19:48.2590,6.15,-7.57,8.37,-1.4,1.05,1.43
2022-12-08 20:19:48.2690,8.9,-4.68,6.62,-1.12,1.53,0.7
2022-12-08 20:19:48.2790,11.02,-2.29,3.9,-0.81,1.86,0.29
2022-12-08 20:19:48.2890,9.8,-2.14,4.28,-0.66,1.71,0.17
2022-12-08 20:19:48.2990,4.44,-1.79,6.09,-0.47,1.19,-0.07
2022-12-08 20:19:48.3090,2.21,-1.1,4.82,-0.29,0.39,-0.52
2022-12-08 20:19:48.3190,4.5,0.76,5.95,-0.09,-0.27,-0.9
2022-12-08 20:19:48.3290,7.84,3.11,6.61,0.1,-0.36,-1.21
2022-12-08 20:19:48.3390,9.65,3.95,4.79,0.24,-0.05,-1.57
2022-12-08 20:19:48.3490,10.24,3.36,2.89,0.38,0.25,-1.96
2022-12-08 20:19:48.3580,9.87,2.63,2.3,0.56,0.28,-2.33
2022-12-08 20:19:48.3680,8.59,2.45,2.71,0.74,0.13,-2.65
2022-12-08 20:19:48.3780,6.93,2.75,3.1,0.93,-0.15,-2.89
2022-12-08 20:19:48.3880,5.46,3.09,3.45,1.14,-0.54,-3.11
2022-12-08 20:19:48.3980,4.55,3.05,3.95,1.34,-0.93,-3.34
2022-12-08 20:19:48.4080,4.31,2.68,4.41,1.51,-1.22,-3.6
2022-12-08 20:19:48.4180,4.5,2.37,4.54,1.66,-1.36,-3.86
2022-12-08 20:19:48.4280,4.897291615605354,2.07,4.36,1.8,-1.38,-4.08
2022-12-08 20:19:48.4380,4.89,2.07,4.36,1.9,-1.31,-4.28
2022-12-08 20:19:48.4480,4.63,1.77,4.17,1.98,-1.12,-4.54
2022-12-08 20:19:48.4580,4.2,0.83,3.66,2.07,-0.87,-4.82
2022-12-08 20:19:48.4680,3.53,-0.23,3.09,2.17,-0.64,-5.04
2022-12-08 20:19:48.4780,1.43,-1.34,2.24,2.3,-0.52,-5.14
2022-12-08 20:19:48.4880,1.43,-1.34,2.24,2.42,-0.49,-5.15
2022-12-08 20:19:48.4980,-1.08,-2.61,1.19,2.54,-0.52,-5.13
2022-12-08 20:19:48.5080,-2.13,-3.37,0.7,2.6,-0.65,-5.11
2022-12-08 20:19:48.5180,-2.7,-4.01,0.19,2.61,-0.81,-5.09
2022-12-08 20:19:48.5280,-2.7,-4.01,0.19,2.58,-0.84,-5.17
2022-12-08 20:19:48.5380,-2.49,-5.18,-0.57,2.56,-0.75,-5.18
2022-12-08 20:19:48.5470,-4.59,-7.35,-1.24,2.57,-0.61,-5.1
2022-12-08 20:19:48.5570,-6.59,-8.91,-0.97,2.58,-0.62,-4.99
2022-12-08 20:19:48.5670,-6.59,-8.91,-0.97,2.57,-0.79,-4.9
2022-12-08 20:19:48.5780,-8.65,-10.12,-0.74,2.48,-1.07,-4.78
2022-12-08 20:19:48.5870,-10.75,-10.71,-1.14,2.3,-1.35,-4.56
2022-12-08 20:19:48.5970,-12.66,-10.71,-2.1,2.08,-1.56,-4.22
2022-12-08 20:19:48.6070,-13.99,-10.09,-3.2,1.83,-1.71,-3.8
2022-12-08 20:19:48.6170,-14.34,-8.86,-3.57,1.61,-1.64,-3.36
2022-12-08 20:19:48.6270,-13.89,-6.53,-3.34,1.43,-1.26,-2.92
2022-12-08 20:19:48.6370,-14.81,-5.58,-3.32,1.25,-0.63,-2.36
2022-12-08 20:19:48.6470,-14.81,-5.58,-3.32,1.03,0.08,-1.69
2022-12-08 20:19:48.6570,-15.81,-4.21,-4.05,0.73,0.59,-1.0
2022-12-08 20:19:48.6670,-15.98,-2.61,-4.98,0.41,0.85,-0.37
2022-12-08 20:19:48.6770,-15.65,-1.45,-5.83,0.11,0.84,0.21
2022-12-08 20:19:48.6870,-15.65,-0.74,-5.71,-0.12,0.63,0.7
2022-12-08 20:19:48.6970,-15.82,-0.84,-4.7,-0.25,0.41,1.05
2022-12-08 20:19:48.7070,-14.69,-2.18,-2.25,-0.36,0.14,1.48
2022-12-08 20:19:48.7170,-14.69,-2.18,-2.25,-0.47,-0.04,1.88
2022-12-08 20:19:48.7260,-14.24,-2.24,-2.3,-0.66,-0.18,2.2
2022-12-08 20:19:48.7370,-12.49,-2.49,-3.45,-0.81,-0.38,2.5
2022-12-08 20:19:48.7470,-10.78,-2.54,-6.31,-0.5,-1.51,2.25
2022-12-08 20:19:48.7560,-4.15,-5.67,-3.5,-0.61,-4.34,1.49
2022-12-08 20:19:48.7660,11.75,-9.28,9.24,-0.45,-3.03,1.15
2022-12-08 20:19:48.7760,23.13,-9.95,-0.96,-0.02,1.37,2.47
2022-12-08 20:19:48.7860,11.45,-6.15,-13.57,-0.05,3.31,4.23
2022-12-08 20:19:48.7960,-7.3,-6.08,-2.17,-0.02,1.69,5.13
2022-12-08 20:19:48.8070,-16.47,0.55,6.11,-0.22,-0.74,3.81
2022-12-08 20:19:48.8160,-12.46,0.55,6.11,-0.18,-1.27,1.87
2022-12-08 20:19:48.8260,-7.87,0.19,-3.08,-0.12,-1.35,1.47
2022-12-08 20:19:48.8360,-5.53,1.46,-2.98,-0.14,-0.81,1.78
2022-12-08 20:19:48.8460,-2.77,-1.5,-0.49,-0.25,-0.04,1.89
2022-12-08 20:19:48.8560,0.56,-4.09,-2.72,-0.16,0.03,1.7
2022-12-08 20:19:48.8660,2.59,-3.83,-1.56,-0.14,0.45,1.55
2022-12-08 20:19:48.8760,1.27,-1.9,-0.99,-0.14,0.65,1.47
2022-12-08 20:19:48.8860,-1.69,0.13,-1.62,-0.08,0.29,1.26
2022-12-08 20:19:48.8960,-2.73,0.03,-0.52,-0.02,-0.1,1.0
2022-12-08 20:19:48.9060,-2.59,-1.07,-0.11,-0.01,-0.33,0.82
2022-12-08 20:19:48.9160,-1.99,-1.37,0.31,-0.03,-0.34,0.71
2022-12-08 20:19:48.9250,-0.85,-0.93,0.72,-0.03,-0.16,0.63
2022-12-08 20:19:48.9350,0.2,-0.43,0.28,-0.05,0.06,0.59
2022-12-08 20:19:48.9450,0.5,0.0,0.27,-0.05,0.28,0.57
2022-12-08 20:19:48.9550,0.44,0.26,0.68,-0.04,0.43,0.57
2022-12-08 20:19:48.9650,0.3,-0.01,0.3,-0.03,0.4,0.53
2022-12-08 20:19:48.9750,-0.15,-0.33,-0.01,-0.01,0.29,0.46
2022-12-08 20:19:48.9850,-0.95,-0.29,0.03,-0.01,0.15,0.41
2022-12-08 20:19:48.9950,-1.14,-0.07,0.27,-0.02,0.04,0.39
2022-12-08 20:19:49.0050,-0.05,-0.02,0.39,-0.04,0.02,0.39
2022-12-08 20:19:49.0150,-0.05,-0.02,0.39,-0.06,0.09,0.4
2022-12-08 20:19:49.0250,0.37,0.11,0.4,-0.09,0.23,0.44
2022-12-08 20:19:49.0350,0.65,0.36,0.37,-0.11,0.36,0.48
2022-12-08 20:19:49.0450,0.73,0.6,0.34,-0.13,0.43,0.53
2022-12-08 20:19:49.0550,0.5,0.69,0.34,-0.16,0.43,0.55
2022-12-08 20:19:49.0650,0.14,0.62,0.14,-0.14,0.39,0.56
2022-12-08 20:19:49.0750,0.0,0.32,-0.09,-0.15,0.32,0.59
2022-12-08 20:19:49.0850,0.03,0.06,0.1,-0.15,0.3,0.63
2022-12-08 20:19:49.0950,0.36,-0.14,0.15,-0.16,0.36,0.69
2022-12-08 20:19:49.1050,0.8,-0.25,-0.2,-0.17,0.46,0.75
2022-12-08 20:19:49.1150,1.22,-0.12,-0.8199113430082798,-0.17,0.54,0.82
2022-12-08 20:19:49.1250,1.35,0.1,-0.82,-0.19,0.55,0.88
2022-12-08 20:19:49.1340,1.09,0.15,-0.78,-0.19,0.54,0.92
2022-12-08 20:19:49.1440,0.77,-0.23,-0.28,-0.17,0.5,0.97
2022-12-08 20:19:49.1540,0.45,-0.43,0.53,-0.21,0.49,1.04
2022-12-08 20:19:49.1640,0.34,-0.36,0.74,-0.25,0.47,1.11
2022-12-08 20:19:49.1740,0.58,-0.27,0.4,-0.32,0.42,1.2
2022-12-08 20:19:49.1840,0.72,0.28,0.78,-0.39,0.39,1.28
2022-12-08 20:19:49.1940,0.72,0.28,0.78,-0.44,0.44,1.31
2022-12-08 20:19:49.2040,0.92,-0.38,0.79,-0.5,0.43,1.4
2022-12-08 20:19:49.2140,1.13,-0.92,0.72,-0.58,0.5,1.51
2022-12-08 20:19:49.2240,1.46,-1.41,0.65,-0.63,0.61,1.6
2022-12-08 20:19:49.2340,2.02,-1.99,0.52,-0.68,0.67,1.72
2022-12-08 20:19:49.2440,2.37,-2.17,0.55,-0.72,0.72,1.82
2022-12-08 20:19:49.2540,2.27,-2.35,0.82,-0.76,0.7,1.92
2022-12-08 20:19:49.2640,1.87,-2.57,1.27,-0.82,0.67,2.01
2022-12-08 20:19:49.2740,1.75,-2.77,1.23,-0.9,0.65,2.09
2022-12-08 20:19:49.2840,2.1,-2.79,0.64,-0.98,0.62,2.18
2022-12-08 20:19:49.2940,2.51,-2.65,0.62,-1.05,0.6,2.26
2022-12-08 20:19:49.3040,2.82,-3.08,1.04,-1.13,0.61,2.35
2022-12-08 20:19:49.3140,3.3,-3.81,1.43,-1.21,0.68,2.44
2022-12-08 20:19:49.3240,4.13,-4.36,1.71,-1.31,0.83,2.52
2022-12-08 20:19:49.3330,5.2,-4.86,1.53,-1.45,0.98,2.6
2022-12-08 20:19:49.3440,6.39,-5.44,0.3,-1.66,0.77,2.67
2022-12-08 20:19:49.3530,7.48,-6.63,1.16,-1.81,0.72,2.71
2022-12-08 20:19:49.3630,8.8,-9.67,3.06,-1.92,1.16,2.94
2022-12-08 20:19:49.3740,10.76,-11.5,2.62,-2.01,1.91,3.28
2022-12-08 20:19:49.3840,12.48,-11.62,1.12,-1.89,2.35,3.46
2022-12-08 20:19:49.3940,12.34,-12.56,1.62,-1.87,2.3,3.56
2022-12-08 20:19:49.4040,9.99,-12.63,2.72,-2.07,1.83,3.61
2022-12-08 20:19:49.4130,7.19,-11.78,4.57,-2.08,1.14,3.55
2022-12-08 20:19:49.4230,5.46,-10.21,6.81,-2.08,0.58,3.29
2022-12-08 20:19:49.4330,5.06,-9.15,9.47,-2.0,0.67,2.84
2022-12-08 20:19:49.4430,5.14,-8.56,8.66,-1.81,1.12,2.31
2022-12-08 20:19:49.4530,6.35,-8.28,8.73,-1.55,0.96,1.71
2022-12-08 20:19:49.4630,8.29,-7.26,10.79,-1.39,1.12,1.04
2022-12-08 20:19:49.4730,9.58,-4.53,9.68,-1.12,1.55,0.21
2022-12-08 20:19:49.4830,7.61,-1.89,8.93,-0.92,1.69,-0.05
2022-12-08 20:19:49.4930,7.61,-1.89,8.93,-0.72,1.63,-0.25
2022-12-08 20:19:49.5030,3.3,-1.55,6.31,-0.47,0.83,-0.63
2022-12-08 20:19:49.5130,3.9,-0.57,6.75,-0.3,-0.19,-1.04
2022-12-08 20:19:49.5230,7.37,1.37,9.53,-0.09,-0.58,-1.4
2022-12-08 20:19:49.5330,9.64,2.42,7.64,0.07,-0.32,-1.73
2022-12-08 20:19:49.5420,10.15,1.87,4.53,0.21,-0.01,-2.09
2022-12-08 20:19:49.5520,9.86,1.09,3.4,0.39,0.0,-2.48
2022-12-08 20:19:49.5620,8.84,0.83,4.07,0.57,-0.24,-2.83
2022-12-08 20:19:49.5720,6.96,0.97,4.6,0.76,-0.58,-3.11
2022-12-08 20:19:49.5820,4.98,1.33,4.71,0.96,-1.01,-3.3
2022-12-08 20:19:49.5920,3.6,1.58,5.06,1.13,-1.5,-3.48
2022-12-08 20:19:49.6020,3.1,1.47,5.61,1.27,-1.84,-3.73
2022-12-08 20:19:49.6120,3.43,1.19,5.81,1.41,-1.97,-4.01
2022-12-08 20:19:49.6220,4.12,1.12,5.56,1.56,-1.97,-4.26
2022-12-08 20:19:49.6320,4.67,1.03,5.66,1.72,-1.83,-4.48
2022-12-08 20:19:49.6420,4.61,0.49,5.68,1.89,-1.6,-4.69
2022-12-08 20:19:49.6520,3.62,-0.37,5.63,2.04,-1.36,-4.88
2022-12-08 20:19:49.6620,1.93,-1.13,5.54,2.21,-1.21,-5.02
2022-12-08 20:19:49.6720,0.24,-1.59,5.25,2.37,-1.19,-5.11
2022-12-08 20:19:49.6820,-0.92,-2.04,4.8,2.53,-1.23,-5.19
2022-12-08 20:19:49.6920,-1.41,-2.73,4.14,2.66,-1.25,-5.24
2022-12-08 20:19:49.7020,-1.61,-3.39,3.4,2.76,-1.21,-5.23
2022-12-08 20:19:49.7110,-1.88,-3.9,2.64,2.82,-1.1,-5.25
2022-12-08 20:19:49.7220,-2.09,-4.76,1.94,2.85,-0.84,-5.32
2022-12-08 20:19:49.7310,-2.39,-6.02,1.06,2.86,-0.51,-5.35
2022-12-08 20:19:49.7410,-3.38,-7.12,0.19,2.88,-0.19,-5.31
2022-12-08 20:19:49.7510,-4.97,-8.07,-0.48,2.89,0.03,-5.23
2022-12-08 20:19:49.7610,-6.71,-9.04,-0.97,2.88,0.15,-5.13
2022-12-08 20:19:49.7720,-8.27,-10.08,-1.39,2.82,0.21,-4.98
2022-12-08 20:19:49.7820,-9.77,-10.9,-2.02,2.71,0.35,-4.78
2022-12-08 20:19:49.7920,-11.27,-11.44,-3.15,2.58,0.52,-4.47
2022-12-08 20:19:49.8020,-14.35,-11.04,-5.17,2.38,0.7,-4.04
2022-12-08 20:19:49.8110,-14.35,-11.04,-5.17,2.12,0.88,-3.52
2022-12-08 20:19:49.8210,-15.03,-9.5,-6.47,1.8,1.06,-2.93
2022-12-08 20:19:49.8310,-15.56,-7.51,-7.96,1.47,1.16,-2.29
2022-12-08 20:19:49.8410,-16.61,-5.62,-9.05,1.12,1.15,-1.65
2022-12-08 20:19:49.8510,-18.02,-4.14,-9.7,0.72,1.09,-1.02
2022-12-08 20:19:49.8610,-19.18,-3.12,-10.19,0.33,1.0,-0.37
2022-12-08 20:19:49.8710,-19.65,-2.32,-10.45,-0.04,0.86,0.29
2022-12-08 20:19:49.8800,-18.9,-1.52,-9.95,-0.36,0.74,0.84
2022-12-08 20:19:49.8910,-17.06,-1.1,-9.31,-0.59,0.63,1.29
2022-12-08 20:19:49.9010,-15.08,-1.67,-7.46,-0.81,0.32,1.86
2022-12-08 20:19:49.9100,-15.08,-1.67,-7.46,-0.95,-0.08,2.28
2022-12-08 20:19:49.9200,-16.32,-2.6,-7.28,-1.15,-0.73,2.54
2022-12-08 20:19:49.9300,-15.17,-3.94,-6.76,-0.85,-1.58,2.59
2022-12-08 20:19:49.9400,-11.28,-5.12,-4.75,-0.34,-3.99,1.96
2022-12-08 20:19:49.9500,2.75,-8.28,9.46,-1.24,-6.05,0.75
2022-12-08 20:19:49.9600,25.22,-11.72,11.57,-0.43,-1.46,0.63
2022-12-08 20:19:49.9700,28.02,-9.0,-18.57,0.19,1.81,2.81
2022-12-08 20:19:49.9800,6.12,-5.47,-8.73,-0.64,3.39,4.75
2022-12-08 20:19:49.9900,-13.41,-8.08,2.59,-0.74,1.54,5.5
2022-12-08 20:19:50.0000,-20.2,-0.05,4.16,-0.8,-0.91,4.58
2022-12-08 20:19:50.0100,-15.1,4.58,1.99,-0.53,-1.19,2.54
2022-12-08 20:19:50.0200,-11.28,-0.03,-6.96,-0.47,-0.94,1.3
2022-12-08 20:19:50.0300,-6.1,-3.88,-2.32,-0.65,-0.45,1.12
2022-12-08 20:19:50.0400,-0.25,-3.51,-0.51,-0.51,0.03,1.41
2022-12-08 20:19:50.0500,2.81,-3.52,-3.37,-0.31,0.33,1.73
2022-12-08 20:19:50.0600,3.37,-2.68,-2.83,-0.32,0.58,1.55
2022-12-08 20:19:50.0700,0.19,-1.61,-0.76,-0.33,0.56,1.09
2022-12-08 20:19:50.0800,-3.06,-0.36,-0.01,-0.24,-0.07,0.76
2022-12-08 20:19:50.0900,-3.97,0.0,0.53,-0.2,-0.52,0.62
2022-12-08 20:19:50.1000,-3.04,-0.92,0.6,-0.19,-0.54,0.51
2022-12-08 20:19:50.1100,-1.28,-1.54,0.26,-0.17,-0.37,0.42
2022-12-08 20:19:50.1200,0.21,-0.94,-0.15,-0.15,-0.13,0.36
2022-12-08 20:19:50.1290,0.73,-0.04,-0.4,-0.17,0.16,0.36
2022-12-08 20:19:50.1390,0.78,0.31,0.18,-0.17,0.4,0.41
2022-12-08 20:19:50.1490,1.02,0.28,0.04,-0.14,0.42,0.48
2022-12-08 20:19:50.1590,0.2,-0.43,0.12,-0.12,0.31,0.51
2022-12-08 20:19:50.1700,0.2,-0.43,0.12,-0.12,0.16,0.45
2022-12-08 20:19:50.1790,-1.01,-0.11,0.91,-0.13,0.04,0.38
2022-12-08 20:19:50.1890,-0.56,0.26,0.79,-0.15,0.0,0.38
2022-12-08 20:19:50.1990,-0.56,0.26,0.79,-0.18,0.03,0.41
2022-12-08 20:19:50.2090,0.11,0.55,0.38,-0.2,0.15,0.46
2022-12-08 20:19:50.2190,1.05,0.42,-0.06,-0.21,0.33,0.49
2022-12-08 20:19:50.2290,1.05,0.42,-0.06,-0.21,0.45,0.52
2022-12-08 20:19:50.2390,0.81,0.34,0.02,-0.23,0.44,0.54
2022-12-08 20:19:50.2490,-0.46,0.43,0.54,-0.25,0.39,0.54
2022-12-08 20:19:50.2590,-0.46,0.43,0.54,-0.28,0.3,0.54
2022-12-08 20:19:50.2680,-0.4,0.58,0.23,-0.3,0.26,0.54
2022-12-08 20:19:50.2790,-0.4,0.58,0.23,-0.32,0.28,0.58
2022-12-08 20:19:50.2880,0.03,0.62,0.04,-0.34,0.31,0.64
2022-12-08 20:19:50.2980,0.64,0.56,0.08,-0.36,0.32,0.72
2022-12-08 20:19:50.3090,0.64,0.56,0.08,-0.39,0.29,0.78
2022-12-08 20:19:50.3180,0.98,-0.12,0.28,-0.4,0.26,0.84
2022-12-08 20:19:50.3280,0.98,-0.12,0.28,-0.43,0.2,0.92
2022-12-08 20:19:50.3380,0.97,-0.52,0.48,-0.47,0.15,1.01
2022-12-08 20:19:50.3480,0.84,-0.64,0.53,-0.53,0.1,1.1
2022-12-08 20:19:50.3580,0.66,-0.56,0.77,-0.6,0.07,1.18
2022-12-08 20:19:50.3680,1.2,-0.35,1.04,-0.64,0.13,1.3
2022-12-08 20:19:50.3780,1.2,-0.35,1.04,-0.72,0.17,1.47
2022-12-08 20:19:50.3880,1.5,-0.21,1.01,-0.8,0.17,1.65
2022-12-08 20:19:50.3980,1.72,-0.6,0.72,-0.89,0.15,1.79
2022-12-08 20:19:50.4080,1.72,-0.6,0.72,-0.97,0.12,1.9
2022-12-08 20:19:50.4180,2.01,-2.27,0.58,-1.05,0.15,2.02
2022-12-08 20:19:50.4280,2.01,-2.27,0.58,-1.13,0.18,2.16
2022-12-08 20:19:50.4380,2.18,-2.78,0.22,-1.21,0.18,2.27
2022-12-08 20:19:50.4480,2.32,-3.13,0.1,-1.27,0.19,2.36
2022-12-08 20:19:50.4580,2.32,-3.71,0.38,-1.32,0.2,2.46
2022-12-08 20:19:50.4680,2.74,-4.99,1.87,-1.37,0.27,2.54
2022-12-08 20:19:50.4780,2.74,-4.99,1.87,-1.44,0.41,2.61
2022-12-08 20:19:50.4880,3.67,-5.46,1.97,-1.61,0.48,2.68
2022-12-08 20:19:50.4970,4.81,-5.99,1.53,-1.77,0.44,2.75
2022-12-08 20:19:50.5080,5.36,-7.13,2.85,-1.82,0.54,2.79
2022-12-08 20:19:50.5170,6.12,-9.73,5.23,-1.88,0.89,2.93
2022-12-08 20:19:50.5280,7.99,-11.54,6.28,-1.9,1.41,3.15
2022-12-08 20:19:50.5390,10.03,-11.7,6.32,-1.91,2.01,3.29
2022-12-08 20:19:50.5480,11.52,-11.69,5.83,-1.93,2.52,3.37
2022-12-08 20:19:50.5580,11.6,-11.55,4.98,-1.96,2.77,3.46
2022-12-08 20:19:50.5670,10.26,-11.24,4.77,-2.11,2.87,3.48
2022-12-08 20:19:50.5770,8.35,-11.03,4.72,-2.18,2.87,3.26
2022-12-08 20:19:50.5870,7.76,-10.98,5.69,-1.97,2.66,2.89
2022-12-08 20:19:50.5970,8.05,-8.539695907831192,8.8,-1.68,2.55,2.57
2022-12-08 20:19:50.6070,6.98,-8.54,8.8,-1.45,2.59,2.27
2022-12-08 20:19:50.6170,4.86,-6.57,7.41,-1.09,2.11,1.87
2022-12-08 20:19:50.6270,3.35,-6.05,9.53,-0.88,1.56,1.36
2022-12-08 20:19:50.6370,3.02,-5.47,10.72,-0.58,1.16,0.74
2022-12-08 20:19:50.6470,4.05,-4.03,9.54,-0.29,0.86,0.32
2022-12-08 20:19:50.6570,5.4,-2.23,9.13,-0.17,0.6,0.19
2022-12-08 20:19:50.6670,4.65,-0.45,9.02,0.08,0.61,-0.03
2022-12-08 20:19:50.6770,5.19,0.56,4.67,0.38,0.15,-0.43
2022-12-08 20:19:50.6860,8.23,1.39,6.04,0.65,-0.28,-0.89
2022-12-08 20:19:50.6960,10.77,1.87,7.33,0.88,-0.21,-1.3
2022-12-08 20:19:50.7060,10.97,1.96,5.66,1.1,-0.04,-1.63
2022-12-08 20:19:50.7160,9.37,2.0,4.29,1.37,-0.23,-1.88
2022-12-08 20:19:50.7260,7.4,2.14,4.58,1.6,-0.7,-2.1
2022-12-08 20:19:50.7360,5.67,2.47,5.16,1.81,-1.15,-2.35
2022-12-08 20:19:50.7460,4.55,2.67,4.83,2.02,-1.51,-2.6
2022-12-08 20:19:50.7560,4.28,2.76,4.32,2.22,-1.82,-2.87
2022-12-08 20:19:50.7660,4.49,2.74,4.3,2.4,-2.05,-3.17
2022-12-08 20:19:50.7760,4.72,2.52,4.36,2.55,-2.17,-3.49
2022-12-08 20:19:50.7860,4.94,2.28,4.28,2.66,-2.19,-3.82
2022-12-08 20:19:50.7960,5.6,1.49,3.51,2.73,-2.05,-4.15
2022-12-08 20:19:50.8060,5.6,1.49,3.51,2.78,-1.77,-4.48
2022-12-08 20:19:50.8160,5.73,0.92,2.7,2.87,-1.43,-4.77
2022-12-08 20:19:50.8260,5.33,0.31,1.92,2.97,-1.16,-4.99
2022-12-08 20:19:50.8360,4.24,-0.53,1.51,3.06,-0.96,-5.17
2022-12-08 20:19:50.8460,2.73,-1.52,0.89,3.17,-0.88,-5.32
2022-12-08 20:19:50.8560,1.29,-2.4,-0.19,3.26,-1.01,-5.41
2022-12-08 20:19:50.8660,0.23,-3.05,-0.75,3.28,-1.19,-5.49
2022-12-08 20:19:50.8750,-0.64,-3.83,-1.54,3.27,-1.42,-5.55
2022-12-08 20:19:50.8860,-1.63,-4.98,-2.15,3.22,-1.66,-5.6
2022-12-08 20:19:50.8950,-2.83,-6.42,-2.27,3.15,-1.86,-5.68
2022-12-08 20:19:50.9050,-3.79,-8.36,-2.58,3.05,-2.0,-5.7
2022-12-08 20:19:50.9160,-4.97,-10.12,-2.77,2.9,-2.05,-5.63
2022-12-08 20:19:50.9260,-6.55,-11.79,-3.3,2.68,-2.03,-5.5
2022-12-08 20:19:50.9360,-8.43,-13.32,-4.03,2.36,-1.86,-5.25
2022-12-08 20:19:50.9460,-10.78,-14.69,-5.16,1.99,-1.55,-4.79
2022-12-08 20:19:50.9550,-13.97,-15.43,-6.37,1.6,-1.31,-4.16
2022-12-08 20:19:50.9650,-17.79,-14.88,-6.88,1.31,-1.0,-3.49
2022-12-08 20:19:50.9750,-20.97,-11.6,-6.12,1.04,-0.25,-2.8
2022-12-08 20:19:50.9850,-21.62,-5.59,-5.84,0.72,0.52,-2.0
2022-12-08 20:19:50.9950,-20.35,-1.78,-7.0,0.4,1.25,-1.2
2022-12-08 20:19:51.0050,-19.05,-1.81,-8.66,0.02,1.72,-0.42
2022-12-08 20:19:51.0150,-18.8,-2.89,-9.28,-0.31,1.68,0.32
2022-12-08 20:19:51.0250,-19.87,-2.72,-8.07,-0.57,1.23,0.92
2022-12-08 20:19:51.0350,-20.4,-1.79,-6.18,-0.73,0.61,1.34
2022-12-08 20:19:51.0450,-19.4,-1.59,-4.88,-0.83,-0.05,1.74
2022-12-08 20:19:51.0550,-17.28,-2.45,-3.52,-0.88,-0.64,2.17
2022-12-08 20:19:51.0650,-16.11,-2.92,-3.4,-0.85,-1.08,2.24
2022-12-08 20:19:51.0750,-13.17,-4.98,-3.21,-0.68,-1.1,2.51
2022-12-08 20:19:51.0850,-10.25,-4.02,-2.69,-0.04,-1.92,2.43
2022-12-08 20:19:51.0950,18.45,-3.52,14.83,-0.76,-4.46,1.85
2022-12-08 20:19:51.1050,18.45,-3.52,14.83,-0.69,-2.53,0.64
2022-12-08 20:19:51.1150,31.24,-10.94,-6.15,0.2,1.3,1.8
2022-12-08 20:19:51.1240,14.29,-7.39,-15.52,-0.08,3.41,3.62
2022-12-08 20:19:51.1340,-8.1,-9.35,-0.14,-0.56,3.38,5.04
2022-12-08 20:19:51.1440,-20.81,-4.97,-0.83,-0.6,-0.04,4.87
2022-12-08 20:19:51.1540,-19.16,2.81,2.94,-0.49,-1.48,2.83
2022-12-08 20:19:51.1640,-11.74,0.43,-1.57,-0.31,-1.41,1.33
2022-12-08 20:19:51.1740,-5.36,-1.89,-3.32,-0.41,-0.99,1.08
2022-12-08 20:19:51.1840,-0.23,-1.95,1.15,-0.38,-0.14,1.41
2022-12-08 20:19:51.1940,2.6,-2.77,-3.71,-0.2,0.08,1.78
2022-12-08 20:19:51.2040,3.41,-2.73,-2.98,-0.22,0.41,1.64
2022-12-08 20:19:51.2140,0.18,-2.01,-1.02,-0.24,0.38,1.24
2022-12-08 20:19:51.2240,-2.99,-0.31,0.12,-0.23,-0.13,0.96
2022-12-08 20:19:51.2340,-3.2,0.4,0.73,-0.21,-0.31,0.83
2022-12-08 20:19:51.2440,-1.97,-0.46,-0.16,-0.21,-0.22,0.8
2022-12-08 20:19:51.2540,-0.57,-1.06,-0.27,-0.19,-0.08,0.73
2022-12-08 20:19:51.2640,0.4,-0.76,0.13,-0.18,0.06,0.6
2022-12-08 20:19:51.2740,-0.55,0.09,0.66,-0.18,0.13,0.53
2022-12-08 20:19:51.2840,-0.55,0.09,0.66,-0.17,0.18,0.52
2022-12-08 20:19:51.2930,-0.37,-0.09,0.44,-0.15,0.24,0.53
2022-12-08 20:19:51.3040,0.45,-0.53,-0.01,-0.13,0.31,0.54
2022-12-08 20:19:51.3140,0.65,-0.54,-0.35,-0.12,0.26,0.51
2022-12-08 20:19:51.3230,0.16,-0.35,-0.13,-0.11,0.24,0.46
2022-12-08 20:19:51.3330,-0.49,-0.17,0.33,-0.11,0.22,0.43
2022-12-08 20:19:51.3430,-0.47,-0.07,0.31,-0.12,0.21,0.44
2022-12-08 20:19:51.3530,-0.02,0.13,0.15,-0.13,0.25,0.45
2022-12-08 20:19:51.3630,0.25,0.26,0.09,-0.14,0.32,0.46
2022-12-08 20:19:51.3730,0.32,0.31,0.419384526014328,-0.16,0.37,0.48
2022-12-08 20:19:51.3830,0.27,0.37,0.41,-0.17,0.38,0.49
2022-12-08 20:19:51.3930,0.08,0.46,0.52,-0.17,0.37,0.5
2022-12-08 20:19:51.4030,-0.13,0.48,0.52,-0.18,0.33,0.5
2022-12-08 20:19:51.4130,-0.16,0.47,0.49,-0.2,0.32,0.52
2022-12-08 20:19:51.4230,-0.04,0.51,0.44,-0.21,0.34,0.56
2022-12-08 20:19:51.4330,0.09,0.51,0.19,-0.23,0.34,0.61
2022-12-08 20:19:51.4430,0.27,0.44,0.09,-0.25,0.32,0.66
2022-12-08 20:19:51.4530,0.33,0.41,0.03,-0.25,0.26,0.71
2022-12-08 20:19:51.4620,0.33,0.4,0.02,-0.25,0.21,0.75
2022-12-08 20:19:51.4730,0.33,0.36,0.06,-0.27,0.15,0.79
2022-12-08 20:19:51.4820,0.33,0.2,0.04,-0.28,0.11,0.83
2022-12-08 20:19:51.4920,0.39,-0.15,-0.08,-0.31,0.09,0.88
2022-12-08 20:19:51.5030,0.39,-0.15,-0.08,-0.35,0.11,0.94
2022-12-08 20:19:51.5120,0.67,-0.29,-0.05,-0.4,0.17,1.02
2022-12-08 20:19:51.5220,1.16,-0.35,0.36,-0.44,0.26,1.13
2022-12-08 20:19:51.5320,1.7,-0.4,1.15,-0.52,0.36,1.25
2022-12-08 20:19:51.5420,1.7,-0.4,1.15,-0.61,0.39,1.39
2022-12-08 20:19:51.5520,1.84,-0.43,1.07,-0.69,0.38,1.54
2022-12-08 20:19:51.5620,1.89,-0.42,0.86,-0.76,0.33,1.71
2022-12-08 20:19:51.5720,1.87,-0.68,0.65,-0.84,0.25,1.87
2022-12-08 20:19:51.5820,1.84,-1.14,0.62,-0.92,0.15,2.02
2022-12-08 20:19:51.5920,1.78,-1.7,0.9,-1.0,0.08,2.15
2022-12-08 20:19:51.6020,1.93,-2.89,1.24,-1.07,0.03,2.28
2022-12-08 20:19:51.6120,1.93,-2.89,1.24,-1.13,0.06,2.43
2022-12-08 20:19:51.6220,2.48,-3.54,1.54,-1.2,0.18,2.57
2022-12-08 20:19:51.6320,3.11,-4.46,2.07,-1.25,0.34,2.73
2022-12-08 20:19:51.6420,3.92,-5.34,2.79,-1.29,0.59,2.9
2022-12-08 20:19:51.6520,4.84,-5.9,2.85,-1.31,0.9,3.09
2022-12-08 20:19:51.6620,5.74,-6.1,2.38,-1.39,1.08,3.26
2022-12-08 20:19:51.6720,6.67,-6.71,1.66,-1.54,1.06,3.34
2022-12-08 20:19:51.6820,7.36,-8.64,2.09,-1.69,1.23,3.39
2022-12-08 20:19:51.6920,8.25,-11.34,2.78,-1.78,1.48,3.52
2022-12-08 20:19:51.7030,9.93,-12.79,2.92,-1.89,1.96,3.74
2022-12-08 20:19:51.7120,11.56,-12.54,2.19,-1.93,2.47,3.78
2022-12-08 20:19:51.7220,12.41,-12.7,1.18,-1.9,2.59,3.75
2022-12-08 20:19:51.7320,11.48,-13.26,5.337213317155839,-1.97,2.44,3.68
2022-12-08 20:19:51.7420,9.14,-13.19,5.33,-2.06,2.11,3.46
2022-12-08 20:19:51.7510,7.97,-12.34,8.33,-2.06,2.04,3.06
2022-12-08 20:19:51.7610,8.39,-10.19,8.8,-1.79,2.28,2.5
2022-12-08 20:19:51.7710,8.2,-6.08,7.35,-1.33,2.63,1.91
2022-12-08 20:19:51.7810,8.2,-6.08,7.35,-0.96,2.41,1.27
2022-12-08 20:19:51.7910,8.13,-5.15,9.45,-0.76,1.9,0.75
2022-12-08 20:19:51.8010,9.02,-2.88,12.23,-0.63,1.71,0.31
2022-12-08 20:19:51.8110,8.58,0.5,10.57,-0.27,2.03,-0.28
2022-12-08 20:19:51.8210,7.67,1.23,6.07,0.03,2.49,-0.7
2022-12-08 20:19:51.8310,-2.28,-1.39,5.44,0.24,2.46,-0.84
2022-12-08 20:19:51.8410,-2.28,-1.39,5.44,0.67,1.16,-0.96
2022-12-08 20:19:51.8510,-3.63,0.71,7.11,0.83,-0.4,-1.21
2022-12-08 20:19:51.8610,0.48,3.11,10.37,1.11,-1.34,-1.54
2022-12-08 20:19:51.8700,5.05,3.81,8.95,1.29,-1.5,-1.84
2022-12-08 20:19:51.8810,7.47,3.49,6.39,1.45,-1.23,-2.11
2022-12-08 20:19:51.8910,9.28,3.16,3.88,1.63,-0.87,-2.43
2022-12-08 20:19:51.9010,10.64,2.91,2.81,1.82,-0.64,-2.86
2022-12-08 20:19:51.9100,11.06,2.62,3.05,2.06,-0.67,-3.26
2022-12-08 20:19:51.9200,10.05,2.51,3.4,2.27,-0.84,-3.55
2022-12-08 20:19:51.9300,7.88,2.49,3.43,2.41,-1.01,-3.79
2022-12-08 20:19:51.9400,5.79,2.33,3.53,2.52,-1.17,-4.04
2022-12-08 20:19:51.9500,4.65,2.05,3.69,2.64,-1.27,-4.3
2022-12-08 20:19:51.9600,4.51,1.72,3.76,2.78,-1.26,-4.58
2022-12-08 20:19:51.9700,4.64,1.26,3.62,2.91,-1.16,-4.83
2022-12-08 20:19:51.9800,4.35,0.49,3.25,3.04,-0.96,-5.06
2022-12-08 20:19:51.9900,2.31,-2.05,1.61,3.14,-0.72,-5.25
2022-12-08 20:19:52.0000,2.31,-2.05,1.61,3.24,-0.49,-5.42
2022-12-08 20:19:52.0100,1.14,-3.06,0.51,3.29,-0.33,-5.54
2022-12-08 20:19:52.0200,0.06,-3.88,-0.52,3.32,-0.23,-5.62
2022-12-08 20:19:52.0300,-0.88,-4.72,-1.67,3.31,-0.19,-5.66
2022-12-08 20:19:52.0400,-2.94,-6.77,-2.9,3.29,-0.17,-5.65
2022-12-08 20:19:52.0490,-2.94,-6.77,-2.9,3.26,-0.14,-5.67
2022-12-08 20:19:52.0600,-4.12,-8.53,-3.26,3.26,-0.08,-5.65
2022-12-08 20:19:52.0700,-5.45,-10.58,-3.72,3.32,-0.02,-5.5
2022-12-08 20:19:52.0800,-7.42,-12.58,-4.07,3.32,-0.05,-5.23
2022-12-08 20:19:52.0900,-9.99,-14.18,-4.08,3.26,-0.17,-4.93
2022-12-08 20:19:52.1000,-12.76,-14.95,-4.06,3.1,-0.31,-4.55
2022-12-08 20:19:52.1100,-15.56,-14.93,-4.62,2.81,-0.43,-4.0
2022-12-08 20:19:52.1200,-18.02,-14.02,-6.3,2.4,-0.6,-3.3
2022-12-08 20:19:52.1290,-19.94,-11.8,-8.34,1.91,-0.83,-2.56
2022-12-08 20:19:52.1390,-20.64,-7.91,-9.71,1.33,-0.92,-1.81
2022-12-08 20:19:52.1490,-20.16,-3.87,-11.24,0.75,-0.67,-0.9
2022-12-08 20:19:52.1590,-20.95,-2.01,-13.17,0.2,-0.68,0.09
2022-12-08 20:19:52.1690,-22.9,-1.24,-11.83,-0.23,-0.58,0.97
2022-12-08 20:19:52.1790,-22.73,-0.54,-9.13,-0.56,-0.62,1.77
2022-12-08 20:19:52.1890,-21.93,0.12,-8.11,-0.8,-0.92,1.99
2022-12-08 20:19:52.1990,-16.73,-2.52,-5.85,-0.88,-0.87,2.22
2022-12-08 20:19:52.2090,-11.33,-3.91,-5.41,-0.88,-0.96,2.5
2022-12-08 20:19:52.2190,-11.33,-3.91,-5.41,-0.86,-1.5,2.7
2022-12-08 20:19:52.2290,-8.78,-4.35,-2.9,-0.61,-1.74,2.76
2022-12-08 20:19:52.2390,-4.67,-2.93,-1.1,-0.21,-1.82,2.65
2022-12-08 20:19:52.2480,3.56,0.07,0.57,0.32,-2.72,2.71
2022-12-08 20:19:52.2590,13.89,4.23,12.23,-0.69,-3.1,1.48
2022-12-08 20:19:52.2690,31.66,-0.45,-9.41,-0.06,-1.01,0.71
2022-12-08 20:19:52.2790,28.54,-10.13,-9.41,1.33,2.33,2.53
2022-12-08 20:19:52.2890,-25.18,-18.29,-19.78,-1.19,5.54,4.78
2022-12-08 20:19:52.2990,-25.18,-18.29,-19.78,-0.68,-0.47,5.71
2022-12-08 20:19:52.3080,-24.17,-12.05,4.61,-0.8,-3.07,4.04
2022-12-08 20:19:52.3180,-13.12,-0.82,7.3,-0.75,-1.81,2.06
2022-12-08 20:19:52.3280,-4.28,4.83,-6.34,-0.59,-1.55,1.34
2022-12-08 20:19:52.3380,3.9,3.5,0.32,-0.59,0.13,1.61
2022-12-08 20:19:52.3480,5.61,-0.02,-3.71,-0.48,0.95,2.15
2022-12-08 20:19:52.3580,2.18,-3.77,-3.92,-0.56,0.85,2.13
2022-12-08 20:19:52.3680,-2.36,-3.98,-0.58,-0.45,0.39,1.62
2022-12-08 20:19:52.3780,-4.07,-1.97,-0.98,-0.41,-0.02,1.16
2022-12-08 20:19:52.3880,-3.67,-0.51,0.38,-0.36,-0.07,1.0
2022-12-08 20:19:52.3980,-2.3,-0.08,0.02,-0.29,0.06,0.89
2022-12-08 20:19:52.4080,-0.26,-0.55,-0.65,-0.25,0.16,0.75
2022-12-08 20:19:52.4180,-0.26,-0.55,-0.65,-0.23,0.22,0.64
2022-12-08 20:19:52.4270,-0.45,-0.66,0.14,-0.21,0.27,0.57
2022-12-08 20:19:52.4380,-0.45,-0.9,0.04,-0.19,0.32,0.53
2022-12-08 20:19:52.4470,0.02,-0.92,-0.09,-0.16,0.39,0.51
2022-12-08 20:19:52.4570,0.4,-0.5,-0.27,-0.16,0.43,0.49
2022-12-08 20:19:52.4680,0.46,-0.23,0.09,-0.15,0.45,0.45
2022-12-08 20:19:52.4770,0.16,-0.23,0.09,-0.15,0.43,0.4
2022-12-08 20:19:52.4870,-0.14,-0.15,0.19,-0.16,0.4,0.38
2022-12-08 20:19:52.4970,-0.2,0.09,0.21,-0.17,0.42,0.4
2022-12-08 20:19:52.5070,0.0,0.39,0.19,-0.19,0.46,0.44
2022-12-08 20:19:52.5170,0.2,0.63,0.27,-0.19,0.51,0.46
2022-12-08 20:19:52.5270,0.08,0.84,0.34,-0.21,0.51,0.45
2022-12-08 20:19:52.5370,-0.29,1.03,0.39,-0.22,0.45,0.45
2022-12-08 20:19:52.5470,-0.73,1.14,0.57,-0.23,0.37,0.45
2022-12-08 20:19:52.5570,-0.98,1.21,0.64,-0.25,0.28,0.45
2022-12-08 20:19:52.5670,-0.9,1.28,0.59,-0.27,0.23,0.45
2022-12-08 20:19:52.5770,-0.67,1.28,0.44,-0.28,0.2,0.48
2022-12-08 20:19:52.5870,-0.41,1.22,0.52,-0.29,0.15,0.53
2022-12-08 20:19:52.5970,-0.08,1.01,0.8,-0.31,0.18,0.57
2022-12-08 20:19:52.6070,0.26,0.62,0.52,-0.33,0.2,0.62
2022-12-08 20:19:52.6170,0.53,0.31,0.26,-0.34,0.22,0.69
2022-12-08 20:19:52.6270,0.68,0.1,0.09,-0.35,0.23,0.78
2022-12-08 20:19:52.6370,0.76,-0.07,0.05,-0.36,0.24,0.89
2022-12-08 20:19:52.6470,0.91,-0.1,0.21,-0.4,0.2,1.02
2022-12-08 20:19:52.6570,1.11,-0.06,0.35,-0.45,0.15,1.12
2022-12-08 20:19:52.6660,1.17,-0.19,0.41,-0.5,0.11,1.21
2022-12-08 20:19:52.6760,1.13,-0.59,0.59,-0.57,0.08,1.31
2022-12-08 20:19:52.6860,1.24,-0.9,0.65,-0.63,0.08,1.43
2022-12-08 20:19:52.6960,1.39,-0.94,0.6,-0.69,0.06,1.55
2022-12-08 20:19:52.7060,1.47,-1.27,0.62,-0.76,0.02,1.66
2022-12-08 20:19:52.7160,1.61,-1.9,0.81,-0.83,0.0,1.81
2022-12-08 20:19:52.7260,1.79,-2.32,0.91,-0.9,-0.01,1.99
2022-12-08 20:19:52.7360,2.06,-2.46,0.96,-0.97,-0.03,2.16
2022-12-08 20:19:52.7460,2.51,-2.56,1.13,-1.05,-0.0,2.31
2022-12-08 20:19:52.7560,2.98,-3.09,1.44,-1.12,0.13,2.47
2022-12-08 20:19:52.7660,3.4,-4.09,1.88,-1.21,0.34,2.68
2022-12-08 20:19:52.7760,4.03,-4.88,2.17,-1.32,0.61,2.88
2022-12-08 20:19:52.7860,4.91,-5.44,2.1,-1.5,0.83,3.0
2022-12-08 20:19:52.7960,5.73,-6.53,1.55,-1.68,0.86,3.07
2022-12-08 20:19:52.8060,6.35,-8.78,2.9,-1.88,1.1,3.22
2022-12-08 20:19:52.8160,7.64,-11.44,3.55,-2.05,1.39,3.47
2022-12-08 20:19:52.8270,10.16,-12.92,3.49,-2.18,1.99,3.68
2022-12-08 20:19:52.8350,12.52,-13.23,1.36,-2.14,2.59,3.7
2022-12-08 20:19:52.8460,13.23,-13.25,0.9112885594367981,-1.96,2.88,3.68
2022-12-08 20:19:52.8550,12.72,-12.46,0.91,-1.74,2.58,3.63
2022-12-08 20:19:52.8650,5.8,-9.49,5.03,-1.66,1.91,3.49
2022-12-08 20:19:52.8750,5.8,-9.49,5.03,-1.69,1.37,3.24
2022-12-08 20:19:52.8850,2.28,-8.84,6.55,-1.78,1.25,2.82
2022-12-08 20:19:52.8950,1.84,-7.94,7.17,-1.67,1.42,2.27
2022-12-08 20:19:52.9050,3.87,-6.99,7.32,-1.49,1.48,1.73
2022-12-08 20:19:52.9150,6.24,-5.47,7.81,-1.15,1.11,1.17
2022-12-08 20:19:52.9250,7.01,-4.25,9.22,-0.84,1.38,0.6
2022-12-08 20:19:52.9350,6.64,-2.64,8.13,-0.57,1.59,-0.18
2022-12-08 20:19:52.9450,7.32,-2.2,6.17,-0.19,1.43,-0.39
2022-12-08 20:19:52.9550,6.67,-0.95,9.67,-0.04,1.34,-0.41
2022-12-08 20:19:52.9650,3.21,0.36,8.86,0.28,1.05,-0.64
2022-12-08 20:19:52.9750,7.04,2.19,8.57,0.52,0.26,-1.0
2022-12-08 20:19:52.9850,9.79898443043232,2.81,8.5,0.78,-0.27,-1.42
2022-12-08 20:19:52.9950,10.76,2.37,5.98,0.96,-0.19,-1.83
2022-12-08 20:19:53.0050,10.27,1.97,4.01,1.11,0.14,-2.2
2022-12-08 20:19:53.0150,9.04,1.99,3.57,1.3,0.27,-2.54
2022-12-08 20:19:53.0240,9.04,1.99,3.57,1.48,0.1,-2.83
2022-12-08 20:19:53.0340,7.4,2.25,4.12,1.64,-0.18,-3.07
2022-12-08 20:19:53.0440,5.83,2.45,4.17,1.81,-0.49,-3.26
2022-12-08 20:19:53.0540,4.84,2.46,4.03,1.97,-0.8,-3.43
2022-12-08 20:19:53.0640,4.59,2.26,4.16,2.12,-1.05,-3.65
2022-12-08 20:19:53.0740,4.78,1.91,4.35,2.26,-1.23,-3.9
2022-12-08 20:19:53.0840,4.94,1.65,4.5,2.37,-1.3,-4.17
2022-12-08 20:19:53.0940,4.77,1.36,4.43,2.49,-1.29,-4.43
2022-12-08 20:19:53.1040,4.35,0.73,4.35,2.58,-1.23,-4.7
2022-12-08 20:19:53.1140,3.84,-0.06,4.32,2.67,-1.09,-4.99
2022-12-08 20:19:53.1240,3.3,-1.04,3.93,2.78,-0.84,-5.23
2022-12-08 20:19:53.1340,2.63,-1.95,3.21,2.89,-0.64,-5.37
2022-12-08 20:19:53.1440,1.6,-2.7,2.76,3.0,-0.47,-5.44
2022-12-08 20:19:53.1540,0.31,-3.52,2.06,3.09,-0.45,-5.48
2022-12-08 20:19:53.1640,-0.88,-4.57,1.51,3.18,-0.48,-5.49
2022-12-08 20:19:53.1740,-2.1,-5.59,1.05,3.26,-0.54,-5.48
2022-12-08 20:19:53.1840,-4.86,-8.27,-0.18,3.31,-0.53,-5.39
2022-12-08 20:19:53.1940,-4.86,-8.27,-0.18,3.34,-0.4,-5.26
2022-12-08 20:19:53.2040,-6.84,-9.69,-1.25,3.32,-0.3,-5.15
2022-12-08 20:19:53.2150,-8.56,-11.01,-1.95,3.24,-0.26,-5.01
2022-12-08 20:19:53.2250,-10.19,-11.68,-2.5,3.05,-0.07,-4.75
2022-12-08 20:19:53.2340,-12.07,-11.95,-4.24,2.78,0.19,-4.38
2022-12-08 20:19:53.2430,-14.31,-12.32,-6.59,2.44,0.28,-3.91
2022-12-08 20:19:53.2540,-16.88,-12.09,-8.37,2.03,0.15,-3.44
2022-12-08 20:19:53.2630,-18.53,-10.18,-8.41,1.67,0.21,-2.7
2022-12-08 20:19:53.2730,-19.89,-6.83,-8.13,1.34,0.15,-1.81
2022-12-08 20:19:53.2830,-21.19,-4.13,-7.98,0.98,0.15,-1.01
2022-12-08 20:19:53.2930,-21.31,-3.34,-8.88,0.6,0.11,-0.33
2022-12-08 20:19:53.3040,-20.68,-3.17,-10.26,0.2,-0.23,0.47
2022-12-08 20:19:53.3130,-19.47,-2.38,-9.84,-0.11,-0.62,1.27
2022-12-08 20:19:53.3230,-19.56,-1.44,-9.9,-0.37,-1.14,1.99
2022-12-08 20:19:53.3330,-19.62,-1.45,-8.99,-0.61,-1.6,2.69
2022-12-08 20:19:53.3430,-19.21,-1.93,-8.93,-0.78,-2.19,3.08
2022-12-08 20:19:53.3530,-16.99,-3.9,-9.29,-0.19,-3.63,2.42
2022-12-08 20:19:53.3630,-6.69,-10.51,-1.67,-1.0,-4.9,2.07
2022-12-08 20:19:53.3730,15.66,-9.23,15.0,-1.44,-3.32,1.24
2022-12-08 20:19:53.3830,30.47,-10.83,-11.47,-0.27,0.14,1.8
2022-12-08 20:19:53.3930,21.48,-12.66,-18.85,0.2,2.19,3.74
2022-12-08 20:19:53.4030,-2.36,-12.57,-2.08,-0.51,1.21,5.22
2022-12-08 20:19:53.4120,-17.47,-7.6,0.53,-0.44,-1.1,4.92
2022-12-08 20:19:53.4230,-15.59,5.6,9.64,-0.47,-0.65,3.1
