time,ax,ay,az,wx,wy,wz
2022-12-08 5:54:36.0530,-0.21,-1.01,-2.22,0.14,0.2,0.47
Time,-0.33,-0.39,-2.22,0.01,-0.04,0.45
2022-12-08 5:54:36.0720,-0.77,0.55,-1.03,-0.07,-0.28,0.37
2022-12-08 5:54:36.0820,-0.28,0.67,-0.45,-0.06,-0.44,0.23
2022-12-08 5:54:36.0920,-0.28,0.67,-0.45,0.02,-0.54,0.05
2022-12-08 5:54:36.1020,-0.04,0.55,0.01,0.2,-0.59,-0.11
2022-12-08 5:54:36.1120,0.06,0.27,0.42,0.42,-0.59,-0.21
2022-12-08 5:54:36.1220,-0.07,-0.08,0.44,0.59,-0.51,-0.27
2022-12-08 5:54:36.1320,-0.15,-0.5,0.04,0.61,-0.46,-0.25
2022-12-08 5:54:36.1420,-0.15,-0.5,0.04,0.49,-0.39,-0.16
2022-12-08 5:54:36.1520,-0.12,-0.34,-0.02,0.32,-0.29,-0.04
2022-12-08 5:54:36.1620,-0.08,-0.24,-0.24,0.2,-0.12,0.09
2022-12-08 5:54:36.1720,-0.16,-0.3,-0.47,0.1,0.06,0.22
2022-12-08 5:54:36.1820,-0.18,-0.09,-0.53,0.01,0.21,0.3
2022-12-08 5:54:36.1920,-0.18,-0.09,-0.53,-0.05,0.34,0.35
2022-12-08 5:54:36.2020,0.06,0.24,-0.68,-0.1,0.46,0.36
2022-12-08 5:54:36.2120,0.06,0.24,-0.68,-0.14,0.54,0.34
2022-12-08 5:54:36.2220,0.19,0.47,-0.71,-0.19,0.56,0.27
2022-12-08 5:54:36.2320,0.09,0.66,-0.5,-0.2,0.47,0.13
2022-12-08 5:54:36.2420,0.09,0.66,-0.5,-0.13,0.3,0.02
2022-12-08 5:54:36.2520,-0.29,0.68,-0.26,0.01,0.1,-0.05
2022-12-08 5:54:36.2620,-0.67,0.6,-0.01,0.2,-0.0,-0.05
2022-12-08 5:54:36.2720,-0.8887377490103245,0.53,-0.51,0.31,-0.05,-0.01
2022-12-08 5:54:36.2810,-0.82,0.64,-0.52,0.31,-0.09,0.06
2022-12-08 5:54:36.2910,-0.82,0.64,-0.52,0.23,-0.13,0.15
2022-12-08 5:54:36.3010,-0.69,0.78,-0.51,0.1,-0.17,0.21
2022-12-08 5:54:36.3110,-0.43,0.76,-0.45,-0.05,-0.23,0.23
2022-12-08 5:54:36.3210,-0.11,0.66,-0.2,-0.16,-0.27,0.22
2022-12-08 5:54:36.3310,0.18,0.62,0.06,-0.22,-0.27,0.18
2022-12-08 5:54:36.3410,0.46,0.59,0.25,-0.23,-0.2,0.1
2022-12-08 5:54:36.3510,0.67,0.49,0.26,-0.18,-0.03,0.03
2022-12-08 5:54:36.3610,0.71,0.47,0.07,-0.09,0.14,-0.02
2022-12-08 5:54:36.3710,0.59,0.53,-0.01,-0.0,0.29,-0.03
2022-12-08 5:54:36.3810,0.12,0.73,-0.31,0.06,0.42,-0.0
2022-12-08 5:54:36.3910,0.12,0.73,-0.31,0.07,0.49,0.06
2022-12-08 5:54:36.4010,-0.1,0.76,-0.63,0.08,0.48,0.15
2022-12-08 5:54:36.4110,-0.37,0.8,-0.8,0.07,0.4,0.24
2022-12-08 5:54:36.4210,-0.67,0.87,-0.96,0.01,0.23,0.29
2022-12-08 5:54:36.4310,-0.92,1.04,-0.85,-0.08,0.04,0.32
2022-12-08 5:54:36.4410,-0.97,1.3,-0.69,-0.17,-0.11,0.31
2022-12-08 5:54:36.4500,-0.97,1.37,-0.41169543743133546,-0.21,-0.16,0.3
2022-12-08 5:54:36.4610,-0.88,1.42,-0.42,-0.19,-0.15,0.28
2022-12-08 5:54:36.4710,-0.73,1.41,-0.09,-0.09,-0.07,0.25
2022-12-08 5:54:36.4800,-0.64,1.42,0.2,0.02,0.06,0.22
2022-12-08 5:54:36.4900,-0.53,1.43,0.26,0.07,0.16,0.21
2022-12-08 5:54:36.5010,-0.41,1.44,0.35,0.05,0.25,0.2
2022-12-08 5:54:36.5100,-0.44,1.45,0.22,-0.04,0.33,0.18
2022-12-08 5:54:36.5200,-0.49,1.49,-0.04,-0.16,0.39,0.17
2022-12-08 5:54:36.5300,-0.53,1.51,-0.15,-0.29,0.38,0.17
2022-12-08 5:54:36.5400,-0.57,1.52,-0.02,-0.38,0.31,0.17
2022-12-08 5:54:36.5500,-0.66,1.44,0.21,-0.38,0.18,0.18
2022-12-08 5:54:36.5600,-0.8,1.32,0.46,-0.29,0.07,0.22
2022-12-08 5:54:36.5700,-0.9,1.27,0.56,-0.16,0.0,0.27
2022-12-08 5:54:36.5800,-0.82,1.26,0.39,-0.03,-0.01,0.32
2022-12-08 5:54:36.5900,-0.61,1.25,0.12,0.09,0.03,0.36
2022-12-08 5:54:36.6000,-0.45,1.33,-0.15,0.18,0.08,0.38
2022-12-08 5:54:36.6100,-0.36,1.49,-0.31,0.26,0.19,0.4
2022-12-08 5:54:36.6200,-0.26,1.64,-0.56,0.31,0.34,0.41
2022-12-08 5:54:36.6300,-0.12,1.74,-0.99,0.33,0.48,0.4
2022-12-08 5:54:36.6400,-0.12,1.74,-1.38,0.33,0.53,0.41
2022-12-08 5:54:36.6500,-0.15,1.76,-1.56,0.3,0.47,0.42
2022-12-08 5:54:36.6600,-0.12,1.78,-1.62,0.23,0.33,0.43
2022-12-08 5:54:36.6700,-0.21,1.84,-1.77,0.16,0.12,0.4
2022-12-08 5:54:36.6790,-0.35,1.87,-1.69,0.1,-0.11,0.37
2022-12-08 5:54:36.6900,-0.44,1.92,-1.48,0.1,-0.33,0.32
2022-12-08 5:54:36.6990,-0.45,1.84,-1.34,0.15,-0.49,0.29
2022-12-08 5:54:36.7090,-0.33,1.75,-1.2,0.2,-0.52,0.28
2022-12-08 5:54:36.7190,-0.09,1.96,-0.98,0.23,-0.47,0.28
2022-12-08 5:54:36.7290,-0.09,1.96,-0.98,0.2,-0.36,0.28
2022-12-08 5:54:36.7390,0.07,2.08,-0.78,0.17,-0.17,0.27
2022-12-08 5:54:36.7490,0.34,2.28,-0.68,0.12,0.04,0.23
2022-12-08 5:54:36.7590,0.42,2.21,-0.67,0.05,0.15,0.14
2022-12-08 5:54:36.7690,0.3,2.0,-0.26,-0.01,0.22,0.05
2022-12-08 5:54:36.7790,0.11,1.99,-0.06,-0.05,0.24,0.01
2022-12-08 5:54:36.7890,-0.19,1.97,0.03,-0.07,0.21,0.01
2022-12-08 5:54:36.7990,-0.19,1.97,0.03,-0.07,0.14,0.04
2022-12-08 5:54:36.8090,-0.31,1.96,0.02,-0.06,0.06,0.07
2022-12-08 5:54:36.8190,-0.41,2.04,-0.01,-0.06,0.0,0.1
2022-12-08 5:54:36.8290,-0.51,2.12,-0.08,-0.07,-0.03,0.11
2022-12-08 5:54:36.8390,-0.62,2.12,-0.18,-0.07,-0.03,0.12
2022-12-08 5:54:36.8490,-0.71,2.14,-0.21,-0.06,0.01,0.12
2022-12-08 5:54:36.8590,-0.71,2.22,-0.18,-0.03,0.1,0.13
2022-12-08 5:54:36.8690,-0.65,2.25,-0.05,0.02,0.18,0.14
2022-12-08 5:54:36.8790,-0.57,2.15,0.18,0.04,0.22,0.16
2022-12-08 5:54:36.8880,-0.58,2.04,0.48,0.04,0.21,0.17
2022-12-08 5:54:36.8980,-0.57,2.03,1.04,0.03,0.19,0.18
2022-12-08 5:54:36.9080,-0.57,2.03,1.04,0.03,0.18,0.19
2022-12-08 5:54:36.9180,-0.49,1.93,1.1,0.04,0.14,0.17
2022-12-08 5:54:36.9280,-0.38,1.79,1.13,0.04,0.03,0.14
2022-12-08 5:54:36.9380,-0.32,1.72,1.3,0.01,-0.13,0.1
2022-12-08 5:54:36.9480,-0.2,1.71,1.7,-0.09,-0.26,0.03
2022-12-08 5:54:36.9580,-0.2,1.71,1.7,-0.24,-0.31,-0.04
2022-12-08 5:54:36.9680,-0.17,1.77,1.61,-0.38,-0.25,-0.1
2022-12-08 5:54:36.9780,-0.06,1.79,1.43,-0.47,-0.17,-0.18
2022-12-08 5:54:36.9880,0.15,1.44,1.55,-0.49,-0.1,-0.22
2022-12-08 5:54:36.9980,0.33,1.07,1.64,-0.47,-0.01,-0.23
2022-12-08 5:54:37.0080,0.33,1.07,1.64,-0.41,0.09,-0.23
2022-12-08 5:54:37.0180,0.32,0.92,1.5,-0.34,0.18,-0.22
2022-12-08 5:54:37.0280,0.19,0.84,1.35,-0.27,0.26,-0.18
2022-12-08 5:54:37.0380,0.02,0.86,1.15,-0.22,0.29,-0.11
2022-12-08 5:54:37.0480,-0.39,0.97,0.99,-0.21,0.28,-0.05
2022-12-08 5:54:37.0580,-0.39,0.97,0.99,-0.25,0.2,-0.01
2022-12-08 5:54:37.0680,-0.56,1.0,1.1,-0.33,0.04,-0.0
2022-12-08 5:54:37.0780,-0.58,0.96,1.44,-0.4,-0.19,-0.05
2022-12-08 5:54:37.0880,-0.37,0.75,1.82,-0.41,-0.4,-0.12
2022-12-08 5:54:37.0970,0.02,0.44,2.27,-0.31,-0.53,-0.19
2022-12-08 5:54:37.1070,0.46,0.15,2.6623285031318664,-0.1,-0.54,-0.23
2022-12-08 5:54:37.1170,0.74,-0.13,2.66,0.15,-0.47,-0.25
2022-12-08 5:54:37.1270,0.73,-0.34,2.48,0.41,-0.35,-0.22
2022-12-08 5:54:37.1370,0.63,-0.39,2.06,0.6,-0.18,-0.15
2022-12-08 5:54:37.1470,0.54,-0.38,1.42,0.7,0.05,-0.04
2022-12-08 5:54:37.1570,0.57,-0.32,0.61,0.72,0.29,0.09
2022-12-08 5:54:37.1670,0.62,-0.14,-0.07,0.65,0.51,0.18
2022-12-08 5:54:37.1770,0.61,-0.03,-0.68,0.52,0.64,0.22
2022-12-08 5:54:37.1870,0.57,0.04,-1.11,0.36,0.65,0.21
2022-12-08 5:54:37.1970,0.54,0.13,-1.12,0.24,0.55,0.16
2022-12-08 5:54:37.2070,0.43,0.2,-1.12,0.17,0.37,0.09
2022-12-08 5:54:37.2170,0.41,0.21,-1.05,0.17,0.16,0.01
2022-12-08 5:54:37.2270,0.35,0.13,-1.07,0.24,-0.06,-0.07
2022-12-08 5:54:37.2370,0.2723884298466146,0.08,-1.21,0.34,-0.28,-0.11
2022-12-08 5:54:37.2470,0.17,0.1,-1.47,0.45,-0.48,-0.14
2022-12-08 5:54:37.2570,0.17,0.1,-1.47,0.52,-0.63,-0.17
2022-12-08 5:54:37.2670,0.09,0.09,-1.63,0.52,-0.72,-0.21
2022-12-08 5:54:37.2770,0.11,0.09,-1.65,0.5,-0.69,-0.25
2022-12-08 5:54:37.2870,0.18,0.11,-2.19,0.44,-0.58,-0.29
2022-12-08 5:54:37.2970,0.3,0.1,-2.19,0.35,-0.42,-0.33
2022-12-08 5:54:37.3070,0.35,0.1,-2.22,0.24,-0.25,-0.37
2022-12-08 5:54:37.3170,0.3,0.12,-2.38,0.14,-0.14,-0.39
2022-12-08 5:54:37.3260,0.16,0.1,-2.38,0.07,-0.11,-0.36
2022-12-08 5:54:37.3370,-0.08,0.12,-2.26,0.01,-0.12,-0.31
2022-12-08 5:54:37.3470,-0.24,0.13,-2.25,-0.03,-0.14,-0.22
2022-12-08 5:54:37.3560,-0.26,0.15,-2.26,-0.03,-0.15,-0.13
2022-12-08 5:54:37.3660,-0.26,0.2,-2.28,-0.03,-0.12,-0.05
2022-12-08 5:54:37.3760,-0.2,0.24,-2.39,-0.03,-0.11,-0.0
2022-12-08 5:54:37.3860,-0.14,0.27,-2.32,-0.03,-0.08,0.03
2022-12-08 5:54:37.3960,-0.05,0.38,-2.14,-0.03,-0.04,0.03
2022-12-08 5:54:37.4060,0.02,0.45,-2.01,-0.02,-0.0,0.01
2022-12-08 5:54:37.4160,0.06,0.45,-1.88,-0.01,0.03,-0.02
2022-12-08 5:54:37.4260,0.13,0.5,-1.73,-0.02,0.05,-0.04
2022-12-08 5:54:37.4360,0.17,0.54,-1.5,-0.03,0.06,-0.05
2022-12-08 5:54:37.4460,0.28,0.61,-1.35,-0.05,0.09,-0.04
2022-12-08 5:54:37.4560,0.33,0.65,-1.26,-0.08,0.12,-0.02
2022-12-08 5:54:37.4660,0.31,0.64,-1.1,-0.11,0.11,0.01
2022-12-08 5:54:37.4760,0.22,0.67,-0.87,-0.11,0.04,0.05
2022-12-08 5:54:37.4860,0.09,0.59,-0.5,-0.04,-0.04,0.09
2022-12-08 5:54:37.4960,-0.07,0.51,-0.07,0.1,-0.08,0.15
2022-12-08 5:54:37.5060,-0.2,0.52,0.09,0.29,-0.04,0.23
2022-12-08 5:54:37.5150,-0.19,0.53,0.11,0.46,0.04,0.3
2022-12-08 5:54:37.5260,-0.09,0.49,0.16,0.56,0.17,0.37
2022-12-08 5:54:37.5350,0.0,0.53,0.1,0.53,0.32,0.43
2022-12-08 5:54:37.5450,0.09,0.67,0.0,0.41,0.42,0.46
2022-12-08 5:54:37.5550,0.21,0.76,0.08,0.22,0.46,0.45
2022-12-08 5:54:37.5650,0.43,0.77,0.45,0.02,0.39,0.36
2022-12-08 5:54:37.5750,0.52,0.66,1.11,-0.1,0.32,0.24
2022-12-08 5:54:37.5850,0.07,0.59,1.61,-0.08,0.34,0.15
2022-12-08 5:54:37.5950,-0.46,0.72,1.74,0.06,0.45,0.15
2022-12-08 5:54:37.6050,-0.82,0.68,1.52,0.24,0.51,0.21
2022-12-08 5:54:37.6150,-0.82,0.68,1.52,0.34,0.43,0.3
2022-12-08 5:54:37.6250,-0.84,0.5,1.67,0.32,0.25,0.37
2022-12-08 5:54:37.6350,-0.77,0.38,1.77,0.19,0.05,0.37
2022-12-08 5:54:37.6450,-0.45,0.05,1.8,-0.01,-0.13,0.3
2022-12-08 5:54:37.6550,-0.15,-0.27,2.08,-0.21,-0.27,0.18
2022-12-08 5:54:37.6650,-0.1,-0.36,2.57,-0.31,-0.31,0.06
2022-12-08 5:54:37.6750,-0.13,-0.45,2.88,-0.28,-0.23,-0.02
2022-12-08 5:54:37.6850,-0.1,-0.66,2.84,-0.17,-0.09,0.0
2022-12-08 5:54:37.6950,-0.11,-0.78,2.64,-0.04,0.06,0.12
2022-12-08 5:54:37.7040,-0.16,-0.72,2.44,0.08,0.16,0.28
2022-12-08 5:54:37.7140,-0.26,-0.57,2.17,0.12,0.17,0.42
2022-12-08 5:54:37.7240,-0.36,-0.54,1.94,0.12,0.08,0.52
2022-12-08 5:54:37.7340,-0.4,-0.43,1.8,0.11,-0.03,0.56
2022-12-08 5:54:37.7440,-0.46,-0.22,1.31,0.11,-0.12,0.52
2022-12-08 5:54:37.7540,-0.46,-0.22,1.31,0.11,-0.18,0.44
2022-12-08 5:54:37.7650,-0.41,-0.23,1.07,0.11,-0.24,0.31
2022-12-08 5:54:37.7740,-0.35,-0.2,0.81,0.06,-0.27,0.17
2022-12-08 5:54:37.7840,-0.33,-0.15,0.53,-0.01,-0.22,0.04
2022-12-08 5:54:37.7940,-0.31,-0.06,0.18,-0.09,-0.11,-0.05
2022-12-08 5:54:37.8040,-0.23,-0.01,-0.25,-0.17,0.05,-0.1
2022-12-08 5:54:37.8140,-0.16,-0.02,-0.62,-0.25,0.21,-0.13
2022-12-08 5:54:37.8240,-0.18,-0.06,-0.87,-0.33,0.37,-0.14
2022-12-08 5:54:37.8340,-0.27,-0.09,-1.13,-0.39,0.47,-0.14
2022-12-08 5:54:37.8440,-0.34,-0.13,-1.26,-0.42,0.48,-0.12
2022-12-08 5:54:37.8540,-0.43,-0.18,-1.22,-0.4,0.37,-0.09
2022-12-08 5:54:37.8640,-0.61,-0.24,-1.08,-0.29,0.22,-0.05
2022-12-08 5:54:37.8740,-0.78,-0.28,-0.99,-0.11,0.07,0.04
2022-12-08 5:54:37.8840,-0.72,-0.33,-1.1,0.1,-0.05,0.15
2022-12-08 5:54:37.8940,-0.6,-0.35,-1.35,0.29,-0.12,0.28
2022-12-08 5:54:37.9040,-0.44,-0.28,-1.7,0.4,-0.13,0.39
2022-12-08 5:54:37.9140,-0.07,-0.03,-2.42,0.43,-0.09,0.45
2022-12-08 5:54:37.9230,-0.07,-0.03,-2.42,0.39,-0.0,0.46
2022-12-08 5:54:37.9330,0.09,0.15,-3.0245524030923847,0.3,0.09,0.41
2022-12-08 5:54:37.9430,0.2,0.26,-3.03,0.18,0.15,0.32
2022-12-08 5:54:37.9530,0.19,0.3824872796237469,-3.05,0.06,0.15,0.23
2022-12-08 5:54:37.9630,0.11,0.38,-3.05,-0.03,0.13,0.17
2022-12-08 5:54:37.9730,-0.02,0.47,-2.94,-0.06,0.09,0.14
2022-12-08 5:54:37.9830,-0.15,0.49,-2.73,-0.02,0.05,0.12
2022-12-08 5:54:37.9930,-0.2,0.46,-2.41,0.07,0.01,0.12
2022-12-08 5:54:38.0030,-0.07,0.35,-1.95,0.15,-0.05,0.15
2022-12-08 5:54:38.0130,-0.07,0.35,-1.95,0.23,-0.12,0.18
2022-12-08 5:54:38.0230,-0.03,0.38,-1.64,0.27,-0.15,0.2
2022-12-08 5:54:38.0330,0.09,0.33,-1.54,0.27,-0.15,0.2
2022-12-08 5:54:38.0430,0.22,0.26,-1.48,0.23,-0.1,0.16
2022-12-08 5:54:38.0530,0.25,0.3,-1.39,0.16,-0.04,0.11
2022-12-08 5:54:38.0630,0.26,0.37,-1.25,0.06,0.06,0.05
2022-12-08 5:54:38.0730,0.24,0.41,-1.12,-0.03,0.17,-0.01
2022-12-08 5:54:38.0830,0.16,0.43,-0.92,-0.09,0.23,-0.06
2022-12-08 5:54:38.0930,-0.09,0.46,-0.58,-0.08,0.25,-0.09
2022-12-08 5:54:38.1030,-0.32,0.37,-0.24,-0.03,0.22,-0.1
2022-12-08 5:54:38.1130,-0.4,0.22,-0.01,0.02,0.14,-0.08
2022-12-08 5:54:38.1220,-0.4,0.11,0.32,0.06,0.03,-0.06
2022-12-08 5:54:38.1330,-0.33,-0.04,0.7,0.07,-0.03,-0.05
2022-12-08 5:54:38.1420,-0.15,-0.17,0.92,0.06,-0.03,-0.07
2022-12-08 5:54:38.1520,0.1,-0.25,1.19,0.02,0.04,-0.12
2022-12-08 5:54:38.1630,0.25,-0.33,1.43,-0.06,0.15,-0.2
2022-12-08 5:54:38.1720,0.28,-0.38,1.56,-0.12,0.26,-0.27
2022-12-08 5:54:38.1820,0.14,-0.32,1.88,-0.13,0.4,-0.29
2022-12-08 5:54:38.1920,-0.11,-0.11,1.89,-0.09,0.51,-0.26
2022-12-08 5:54:38.2020,-0.36,0.05,1.69,-0.05,0.5,-0.18
2022-12-08 5:54:38.2120,-0.74,0.55,1.73,-0.04,0.35,-0.16
2022-12-08 5:54:38.2220,-0.42,0.95,1.78,-0.06,0.09,-0.29
2022-12-08 5:54:38.2320,-0.42,0.95,1.78,-0.17,-0.15,-0.51
2022-12-08 5:54:38.2420,0.46,0.97,1.75,-0.35,-0.27,-0.75
2022-12-08 5:54:38.2570,1.81,0.51,1.77,-0.52,-0.24,-0.93
2022-12-08 5:54:38.2620,1.81,0.51,1.77,-0.59,-0.05,-1.04
2022-12-08 5:54:38.2720,1.88,-0.04,1.78,-0.49,0.25,-1.04
2022-12-08 5:54:38.2820,1.6,-0.47,1.68,-0.26,0.5,-0.89
2022-12-08 5:54:38.2920,0.93,-0.4,1.71,-0.01,0.59,-0.67
2022-12-08 5:54:38.3020,0.19,-0.26,1.82,0.2,0.59,-0.42
2022-12-08 5:54:38.3120,-0.28,-0.18,1.56,0.36,0.46,-0.24
2022-12-08 5:54:38.3220,-0.54,-0.4,1.17,0.44,0.15,-0.07
2022-12-08 5:54:38.3320,-0.37,-0.02,1.19,0.33,-0.21,-0.0
2022-12-08 5:54:38.3460,-0.06,-0.47,1.02,0.14,-0.5,-0.08
2022-12-08 5:54:38.3560,0.17,-0.39,0.96,-0.08,-0.68,-0.21
2022-12-08 5:54:38.3620,0.17,-0.39,0.96,-0.27,-0.72,-0.38
2022-12-08 5:54:38.3710,0.44,-0.43,0.94,-0.39,-0.59,-0.53
2022-12-08 5:54:38.3810,0.81,-0.57,0.87,-0.43,-0.38,-0.65
2022-12-08 5:54:38.3910,0.92,-0.66,0.76,-0.39,-0.12,-0.7
2022-12-08 5:54:38.4010,0.68,-0.68,0.39,-0.3,0.1,-0.69
2022-12-08 5:54:38.4110,0.68,-0.68,0.39,-0.19,0.26,-0.61
2022-12-08 5:54:38.4210,0.46,-0.71,0.1,-0.1,0.35,-0.47
2022-12-08 5:54:38.4310,0.26,-0.66,-0.35,-0.02,0.36,-0.33
2022-12-08 5:54:38.4410,0.1,-0.62,-0.77,0.03,0.33,-0.19
2022-12-08 5:54:38.4510,-0.12,-0.48,-1.62,0.04,0.27,-0.08
2022-12-08 5:54:38.4610,-0.12,-0.48,-1.62,0.04,0.21,-0.01
2022-12-08 5:54:38.4710,-0.12,-0.36,-2.01,0.02,0.15,0.01
2022-12-08 5:54:38.4810,-0.07,-0.26,-2.28,0.01,0.11,-0.01
2022-12-08 5:54:38.4910,-0.03,-0.15,-2.42,0.02,0.08,-0.06
2022-12-08 5:54:38.5010,0.2,-0.04,-2.66,0.05,0.06,-0.12
2022-12-08 5:54:38.5110,0.3128304959088564,0.03,-2.68,0.09,0.06,-0.16
2022-12-08 5:54:38.5210,0.31,0.03,-2.68,0.15,0.08,-0.19
2022-12-08 5:54:38.5300,0.39,0.12,-2.66,0.23,0.1,-0.22
2022-12-08 5:54:38.5410,0.5,0.11,-2.71,0.3,0.13,-0.22
2022-12-08 5:54:38.5500,0.54,0.12,-2.84,0.32,0.12,-0.21
2022-12-08 5:54:38.5610,0.52,0.15,-2.88,0.33,0.09,-0.17
2022-12-08 5:54:38.5700,0.51,0.26,-2.88,0.31,0.07,-0.12
2022-12-08 5:54:38.5810,0.58,0.38,-2.99,0.26,0.06,-0.11
2022-12-08 5:54:38.5910,0.64,0.42,-3.03,0.18,0.05,-0.11
2022-12-08 5:54:38.6000,0.7,0.5,-2.92,0.09,0.02,-0.14
2022-12-08 5:54:38.6100,0.76,0.58,-2.69,0.02,-0.02,-0.19
2022-12-08 5:54:38.6200,0.81,0.63,-2.32,-0.01,-0.05,-0.26
2022-12-08 5:54:38.6300,0.79,0.63,-1.99,-0.02,-0.07,-0.32
2022-12-08 5:54:38.6400,0.8,0.63,-1.7,0.02,-0.05,-0.33
2022-12-08 5:54:38.6500,0.79,0.65,-1.47,0.08,-0.0,-0.31
2022-12-08 5:54:38.6600,0.65,0.71,-1.39,0.14,0.02,-0.26
2022-12-08 5:54:38.6700,0.35,0.81,-1.29,0.19,0.01,-0.18
2022-12-08 5:54:38.6800,0.0,0.91,-1.26,0.21,-0.03,-0.08
2022-12-08 5:54:38.6900,-0.33,1.02,-1.28,0.23,-0.13,0.04
2022-12-08 5:54:38.7000,-0.62,1.13,-1.13,0.24,-0.26,0.16
2022-12-08 5:54:38.7100,-0.79,1.2,-1.01,0.26,-0.36,0.26
2022-12-08 5:54:38.7200,-0.73,1.14,-0.91,0.25,-0.4,0.34
2022-12-08 5:54:38.7300,-0.49,1.15,-0.85,0.23,-0.37,0.4
2022-12-08 5:54:38.7400,-0.14,1.21,-0.75,0.16,-0.31,0.41
2022-12-08 5:54:38.7500,0.1,1.29,0.37,0.08,-0.27,0.36
2022-12-08 5:54:38.7600,0.1,1.29,0.37,0.04,-0.2,0.29
2022-12-08 5:54:38.7700,-0.08,1.31,0.97,0.09,-0.1,0.23
2022-12-08 5:54:38.7800,-0.27,1.22,1.51,0.2,0.02,0.24
2022-12-08 5:54:38.7890,-0.53,1.22,1.9,0.33,0.19,0.34
2022-12-08 5:54:38.7990,-0.82,1.5,1.85,0.36,0.35,0.47
2022-12-08 5:54:38.8090,-0.92,1.55,1.6,0.21,0.39,0.55
2022-12-08 5:54:38.8190,-0.83,1.38,1.72,-0.13,0.28,0.5
2022-12-08 5:54:38.8290,-0.79,1.12,2.21,-0.54,0.05,0.31
2022-12-08 5:54:38.8390,-0.89,0.79,3.05,-0.83,-0.23,0.0
2022-12-08 5:54:38.8490,-1.02,0.31,4.07,-0.88,-0.44,-0.32
2022-12-08 5:54:38.8590,-0.99,-0.36,4.95,-0.66,-0.51,-0.54
2022-12-08 5:54:38.8690,-0.92,-0.73,5.37,-0.3,-0.42,-0.62
2022-12-08 5:54:38.8790,-0.96,-0.86,5.28,0.04,-0.24,-0.52
2022-12-08 5:54:38.8890,-1.05,-0.9,4.8,0.26,-0.05,-0.27
2022-12-08 5:54:38.8990,-1.14,-0.87,4.34,0.32,0.1,0.06
2022-12-08 5:54:38.9090,-1.18,-0.76,3.91,0.23,0.23,0.39
2022-12-08 5:54:38.9190,-1.13,-0.68,3.48,0.06,0.34,0.62
2022-12-08 5:54:38.9290,-1.03,-0.66,3.09,-0.09,0.44,0.74
2022-12-08 5:54:38.9390,-0.85,-0.63,2.77,-0.17,0.51,0.76
2022-12-08 5:54:38.9490,-0.65,-0.64,2.48,-0.17,0.51,0.71
2022-12-08 5:54:38.9590,-0.56,-0.68,2.18,-0.12,0.45,0.61
2022-12-08 5:54:38.9690,-0.54,-0.75,1.87,-0.03,0.32,0.5
2022-12-08 5:54:38.9790,-0.52,-0.83,1.58,0.05,0.15,0.39
2022-12-08 5:54:38.9890,-0.51,-0.82,1.16,0.12,-0.02,0.3
2022-12-08 5:54:38.9990,-0.49,-0.7780767077207565,0.21,0.15,-0.16,0.23
2022-12-08 5:54:39.0080,-0.45,-0.7,-0.29,0.17,-0.24,0.21
2022-12-08 5:54:39.0190,-0.45,-0.7,-0.29,0.18,-0.23,0.21
2022-12-08 5:54:39.0280,-0.43,-0.69,-0.83,0.16,-0.16,0.22
2022-12-08 5:54:39.0380,-0.4,-0.69,-1.26,0.09,-0.06,0.23
2022-12-08 5:54:39.0480,-0.24,-0.56,-1.81,-0.01,0.04,0.25
2022-12-08 5:54:39.0580,-0.24,-0.56,-1.81,-0.11,0.14,0.25
2022-12-08 5:54:39.0680,-0.14,-0.5,-1.98,-0.21,0.21,0.26
2022-12-08 5:54:39.0780,-0.09,-0.43,-2.08,-0.28,0.27,0.24
2022-12-08 5:54:39.0880,-0.07,-0.41,-2.16,-0.33,0.28,0.21
2022-12-08 5:54:39.0980,-0.11,-0.38,-2.18,-0.36,0.27,0.17
2022-12-08 5:54:39.1080,-0.16,-0.31,-2.26,-0.35,0.23,0.12
2022-12-08 5:54:39.1180,-0.21,-0.28,-2.31,-0.32,0.18,0.08
2022-12-08 5:54:39.1280,-0.28,-0.28,-2.34,-0.29,0.09,0.05
2022-12-08 5:54:39.1380,-0.37,-0.22,-2.35,-0.2,-0.03,0.06
2022-12-08 5:54:39.1480,-0.47,-0.14,-2.25,-0.05,-0.1,0.08
2022-12-08 5:54:39.1580,-0.49,-0.17,-2.15,0.14,-0.12,0.11
2022-12-08 5:54:39.1680,-0.4,-0.23,-2.3,0.26,-0.15,0.16
2022-12-08 5:54:39.1780,-0.25,-0.22,-2.28,0.31,-0.17,0.23
2022-12-08 5:54:39.1880,-0.06,-0.05,-2.24,0.32,-0.16,0.28
2022-12-08 5:54:39.1980,0.3,0.21,-2.62,0.3,-0.1,0.31
2022-12-08 5:54:39.2080,0.3,0.21,-2.62,0.29,-0.04,0.32
2022-12-08 5:54:39.2170,0.23,0.43,-2.77,0.3,-0.05,0.3
2022-12-08 5:54:39.2270,0.09,0.6,-2.66,0.32,-0.11,0.29
2022-12-08 5:54:39.2380,-0.1,0.7675356397032738,-2.67,0.37,-0.19,0.29
2022-12-08 5:54:39.2470,-0.37,0.79,-2.77,0.42,-0.24,0.29
2022-12-08 5:54:39.2580,-0.37,0.79,-2.77,0.43,-0.26,0.32
2022-12-08 5:54:39.2670,-0.36,0.95,-2.54,0.41,-0.28,0.36
2022-12-08 5:54:39.2770,-0.36,0.95,-2.54,0.39,-0.23,0.4
2022-12-08 5:54:39.2870,-0.23,1.06,-2.22,0.36,-0.16,0.41
2022-12-08 5:54:39.2970,-0.07,1.01,-2.06,0.34,-0.15,0.4
2022-12-08 5:54:39.3070,0.07,1.03,-1.27,0.41,-0.13,0.39
2022-12-08 5:54:39.3170,0.1,1.1,-0.36,0.52,-0.07,0.36
2022-12-08 5:54:39.3270,0.1,1.1,-0.36,0.6,-0.09,0.32
2022-12-08 5:54:39.3370,0.04,0.99,0.09,0.59,-0.17,0.25
2022-12-08 5:54:39.3470,-0.01,1.04,0.63,0.48,-0.27,0.14
2022-12-08 5:54:39.3570,0.01,1.03,0.95,0.28,-0.36,0.01
2022-12-08 5:54:39.3670,-0.06,0.78,1.92,0.04,-0.49,-0.15
2022-12-08 5:54:39.3790,-0.06,0.78,1.92,-0.11,-0.57,-0.29
2022-12-08 5:54:39.3870,0.06,0.34,2.74,-0.15,-0.5,-0.41
2022-12-08 5:54:39.3970,0.06,0.34,2.74,-0.08,-0.38,-0.49
2022-12-08 5:54:39.4060,0.19,-0.01,2.96,0.07,-0.19,-0.47
2022-12-08 5:54:39.4160,0.12,0.31,2.68,0.23,0.21,-0.38
2022-12-08 5:54:39.4260,0.12,0.31,2.68,0.29,0.54,-0.29
2022-12-08 5:54:39.4370,0.05,0.25,2.2,0.17,0.66,-0.24
2022-12-08 5:54:39.4460,0.0,0.23,2.23,-0.17,0.6,-0.26
2022-12-08 5:54:39.4560,0.03,0.28,2.18,-0.65,0.4,-0.39
2022-12-08 5:54:39.4660,0.22,-0.05,3.13,-1.1,0.12,-0.64
2022-12-08 5:54:39.4760,0.22,-0.05,3.13,-1.33,-0.14,-0.93
2022-12-08 5:54:39.4860,-0.12,-0.93,4.31,-1.26,-0.3,-1.17
2022-12-08 5:54:39.4960,-0.12,-0.93,4.31,-0.93,-0.36,-1.26
2022-12-08 5:54:39.5060,-0.41,-1.19,4.55,-0.41,-0.31,-1.14
2022-12-08 5:54:39.5160,-0.64,-1.17,4.23,0.14,-0.22,-0.85
2022-12-08 5:54:39.5260,-0.68,-1.07,3.49,0.66,-0.09,-0.41
2022-12-08 5:54:39.5360,-0.56,-0.87,2.65,1.06,0.12,0.06
2022-12-08 5:54:39.5460,-0.28,-0.61,1.55,1.22,0.29,0.42
2022-12-08 5:54:39.5560,-0.18,-0.57,0.48,1.15,0.35,0.6
2022-12-08 5:54:39.5660,-0.05,-0.46,-0.15,0.86,0.29,0.57
2022-12-08 5:54:39.5760,0.17,-0.41,-0.62,0.41,0.15,0.36
2022-12-08 5:54:39.5860,0.6,-0.48,-0.77,-0.11,-0.03,0.03
2022-12-08 5:54:39.5960,0.92,-0.52,-0.62,-0.55,-0.18,-0.34
2022-12-08 5:54:39.6060,0.98,-0.67,-0.16,-0.8,-0.23,-0.64
2022-12-08 5:54:39.6160,0.95,-0.67,-0.16,-0.85,-0.2,-0.84
2022-12-08 5:54:39.6250,0.9,-0.79,0.02,-0.73,-0.14,-0.9
2022-12-08 5:54:39.6350,0.7,-0.78,0.17,-0.53,-0.06,-0.85
Time,0.18,-0.8,-0.44,-0.3,0.05,-0.72
2022-12-08 5:54:39.6550,0.18,-0.8,-0.44,-0.08,0.14,-0.53
2022-12-08 5:54:39.6650,-0.08,-0.79,-0.74,0.14,0.21,-0.32
2022-12-08 5:54:39.6750,-0.27,-0.68,-1.14,0.3,0.26,-0.15
2022-12-08 5:54:39.6850,-0.41,-0.69,-1.67,0.39,0.29,-0.03
2022-12-08 5:54:39.6950,-0.43,-0.6,-2.21,0.39,0.3,0.05
2022-12-08 5:54:39.7050,-0.34,-0.45,-2.68,0.31,0.29,0.08
2022-12-08 5:54:39.7150,-0.22,-0.31,-3.03,0.18,0.27,0.08
2022-12-08 5:54:39.7250,-0.1,-0.13,-3.3,0.04,0.2,0.03
2022-12-08 5:54:39.7350,-0.01,0.01,-3.32,-0.06,0.12,-0.03
2022-12-08 5:54:39.7450,0.04,0.18,-3.19,-0.11,0.04,-0.11
2022-12-08 5:54:39.7550,0.06,0.26,-3.1,-0.12,-0.01,-0.19
2022-12-08 5:54:39.7650,0.11,0.28,-2.83,-0.09,0.0,-0.26
2022-12-08 5:54:39.7750,0.22,0.42,-2.74,-0.06,0.08,-0.31
2022-12-08 5:54:39.7850,0.3,0.52,-2.76,-0.04,0.12,-0.37
2022-12-08 5:54:39.7950,0.26,0.52,-2.5,-0.04,0.12,-0.39
2022-12-08 5:54:39.8050,0.2,0.62,-2.11,-0.07,0.08,-0.39
2022-12-08 5:54:39.8150,0.22,0.72,-1.83,-0.12,0.04,-0.35
2022-12-08 5:54:39.8240,0.28,0.8,-1.57,-0.17,0.03,-0.3
2022-12-08 5:54:39.8340,0.39,0.88,-1.39,-0.2,0.06,-0.24
2022-12-08 5:54:39.8440,0.57,0.96,-1.2,-0.22,0.13,-0.21
2022-12-08 5:54:39.8540,0.79,1.02,-0.88,-0.21,0.19,-0.2
2022-12-08 5:54:39.8640,0.79,1.02,-0.88,-0.21,0.24,-0.23
2022-12-08 5:54:39.8740,0.78,1.04,-0.72,-0.21,0.23,-0.29
2022-12-08 5:54:39.8840,0.65,1.04,-0.4,-0.17,0.19,-0.32
2022-12-08 5:54:39.8940,0.52,1.08,-0.02,-0.07,0.16,-0.32
2022-12-08 5:54:39.9040,0.5,1.08,0.06,0.07,0.11,-0.28
2022-12-08 5:54:39.9140,0.42,1.03,0.23,0.21,0.07,-0.2
2022-12-08 5:54:39.9240,0.16,1.25,0.11,0.32,0.05,-0.09
2022-12-08 5:54:39.9340,0.16,1.25,0.11,0.38,-0.0,-0.01
2022-12-08 5:54:39.9440,-0.05,1.26,0.05,0.39,-0.07,0.08
2022-12-08 5:54:39.9540,-0.27,1.32,0.04,0.35,-0.16,0.15
2022-12-08 5:54:39.9640,-0.42,1.35,0.05,0.28,-0.23,0.19
2022-12-08 5:54:39.9740,-0.42,1.31,0.15116689682006837,0.15,-0.29,0.19
2022-12-08 5:54:39.9840,-0.3,1.31,0.15,-0.01,-0.33,0.17
2022-12-08 5:54:39.9940,-0.22,1.32,0.36,-0.16,-0.32,0.11
2022-12-08 5:54:40.0040,-0.04,1.24,0.57,-0.3,-0.29,0.03
2022-12-08 5:54:40.0140,0.06,1.11,0.88,-0.39,-0.3,-0.05
2022-12-08 5:54:40.0230,-0.01,1.01,1.44,-0.4,-0.33,-0.11
2022-12-08 5:54:40.0330,-0.27,0.94,1.98,-0.31,-0.31,-0.1
2022-12-08 5:54:40.0430,-0.61,0.92,2.24,-0.15,-0.2,-0.03
2022-12-08 5:54:40.0540,-0.92,0.96,2.08,0.0,-0.07,0.11
2022-12-08 5:54:40.0630,-1.11,0.94,1.9,0.04,-0.02,0.27
2022-12-08 5:54:40.0730,-1.26,0.82,1.95,-0.06,-0.1,0.39
2022-12-08 5:54:40.0830,-1.37,0.65,2.2,-0.24,-0.25,0.44
2022-12-08 5:54:40.0930,-1.28,0.45,2.6,-0.38,-0.38,0.43
2022-12-08 5:54:40.1030,-1.04,0.16,3.03,-0.4,-0.42,0.38
2022-12-08 5:54:40.1130,-0.52,-0.45,3.09,-0.28,-0.33,0.33
2022-12-08 5:54:40.1230,-0.52,-0.45,3.09,-0.08,-0.16,0.3
2022-12-08 5:54:40.1330,-0.49,-0.6,2.71,0.11,0.0,0.33
2022-12-08 5:54:40.1430,-0.59,-0.65,2.19,0.21,0.09,0.38
2022-12-08 5:54:40.1530,-0.86,-0.61,1.66,0.17,0.08,0.44
2022-12-08 5:54:40.1630,-1.18,-0.55,1.28,0.05,0.01,0.48
2022-12-08 5:54:40.1730,-1.33,-0.46,0.92,-0.12,-0.08,0.5
2022-12-08 5:54:40.1830,-1.27,-0.48,0.68,-0.26,-0.19,0.47
2022-12-08 5:54:40.1930,-1.16,-0.58,0.71,-0.35,-0.28,0.42
2022-12-08 5:54:40.2030,-1.07,-0.64,0.89,-0.35,-0.29,0.35
2022-12-08 5:54:40.2130,-0.89,-0.73,0.94,-0.3,-0.25,0.28
2022-12-08 5:54:40.2230,-0.72,-0.86,0.81,-0.26,-0.18,0.21
2022-12-08 5:54:40.2330,-0.68,-0.94,0.71,-0.23,-0.12,0.18
2022-12-08 5:54:40.2430,-0.62,-0.89,0.53,-0.24,-0.07,0.18
2022-12-08 5:54:40.2530,-0.57,-0.87,0.2,-0.24,-0.02,0.19
2022-12-08 5:54:40.2620,-0.54,-0.91,-0.02,-0.24,0.02,0.21
2022-12-08 5:54:40.2730,-0.41,-0.9,-0.5,-0.24,0.05,0.23
2022-12-08 5:54:40.2830,-0.41,-0.9,-0.5,-0.24,0.08,0.24
2022-12-08 5:54:40.2920,-0.35,-0.84,-0.69,-0.21,0.11,0.25
2022-12-08 5:54:40.3020,-0.29,-0.81,-0.95,-0.16,0.13,0.25
2022-12-08 5:54:40.3120,-0.25,-0.77,-1.14,-0.08,0.15,0.26
2022-12-08 5:54:40.3220,-0.25,-0.67,-1.38,0.02,0.17,0.27
2022-12-08 5:54:40.3320,-0.21,-0.61,-1.77,0.1,0.19,0.28
2022-12-08 5:54:40.3420,-0.15,-0.56,-2.22,0.11,0.2,0.3
2022-12-08 5:54:40.3520,-0.16,-0.44,-2.55,0.08,0.19,0.3
2022-12-08 5:54:40.3620,-0.16,-0.29,-2.81,0.01,0.18,0.29
2022-12-08 5:54:40.3720,-0.15,-0.19,-3.05,-0.04,0.17,0.27
2022-12-08 5:54:40.3820,-0.16,-0.09,-3.15,-0.07,0.15,0.22
2022-12-08 5:54:40.3920,-0.18,0.02,-3.14,-0.06,0.1,0.18
2022-12-08 5:54:40.4020,-0.18,0.09,-2.93,-0.02,0.03,0.13
2022-12-08 5:54:40.4120,-0.12,0.18,-2.76,0.01,-0.05,0.08
2022-12-08 5:54:40.4220,-0.02,0.21,-2.61,0.04,-0.14,0.03
2022-12-08 5:54:40.4320,0.0,0.22,-2.34,0.07,-0.18,-0.01
2022-12-08 5:54:40.4420,-0.04,0.29,-2.23,0.08,-0.18,-0.02
2022-12-08 5:54:40.4520,0.04,0.33,-1.96,0.06,-0.17,-0.01
2022-12-08 5:54:40.4620,0.04,0.33,-1.96,0.03,-0.16,0.01
2022-12-08 5:54:40.4710,0.08,0.38,-1.69,0.0,-0.13,0.05
2022-12-08 5:54:40.4820,0.12,0.43,-1.43,-0.01,-0.08,0.08
2022-12-08 5:54:40.4920,0.31,0.44,-1.22,-0.02,-0.0,0.1
2022-12-08 5:54:40.5020,0.47,0.45,-1.11,-0.01,0.05,0.08
2022-12-08 5:54:40.5110,0.43,0.5,-0.86,0.03,0.09,0.06
2022-12-08 5:54:40.5220,0.3,0.61,-0.64,0.11,0.07,0.02
2022-12-08 5:54:40.5310,0.13,0.5329571883380413,-0.09,0.2,0.01,-0.03
2022-12-08 5:54:40.5410,-0.04,0.53,-0.09,0.27,-0.09,-0.06
2022-12-08 5:54:40.5510,-0.24,0.51,0.12,0.33,-0.18,-0.07
2022-12-08 5:54:40.5610,-0.23,0.53,0.18,0.32,-0.25,-0.07
2022-12-08 5:54:40.5700,-0.23,0.53,0.18,0.24,-0.27,-0.06
2022-12-08 5:54:40.5860,-0.15,0.5,0.67,0.11,-0.28,-0.05
2022-12-08 5:54:40.5970,-0.15,0.5,0.67,-0.04,-0.33,-0.07
2022-12-08 5:54:40.5960,-0.15,0.5,0.67,-0.18,-0.4,-0.1
2022-12-08 5:54:40.6110,-0.06,0.28,1.22,-0.27,-0.45,-0.12
2022-12-08 5:54:40.6210,0.09,0.13,1.74,-0.29,-0.44,-0.13
2022-12-08 5:54:40.6310,0.29,0.03,2.16,-0.24,-0.32,-0.11
2022-12-08 5:54:40.6410,0.51,0.08,2.41,-0.12,-0.06,-0.07
2022-12-08 5:54:40.6510,0.51,0.32,2.23,-0.02,0.19,-0.04
2022-12-08 5:54:40.6610,0.23,0.54,1.97,0.0,0.26,-0.05
2022-12-08 5:54:40.6710,-0.12,0.55,1.98,-0.07,0.22,-0.08
2022-12-08 5:54:40.6810,-0.22,0.55,1.92,-0.24,0.12,-0.16
2022-12-08 5:54:40.6910,0.31,-0.09,2.0,-0.5,-0.01,-0.31
2022-12-08 5:54:40.7010,0.62,-0.38,2.64,-0.76,-0.15,-0.47
2022-12-08 5:54:40.7100,0.62,-0.38,3.1361038291454317,-0.86,-0.2,-0.57
2022-12-08 5:54:40.7200,0.67,-0.45,3.13,-0.73,-0.09,-0.58
2022-12-08 5:54:40.7300,0.31,-0.56,2.83,-0.41,0.07,-0.47
2022-12-08 5:54:40.7400,0.31,-0.56,2.83,0.02,0.21,-0.25
2022-12-08 5:54:40.7500,-0.32,-0.45,1.99,0.39,0.24,0.0
2022-12-08 5:54:40.7600,-0.32,-0.45,1.99,0.61,0.15,0.2
2022-12-08 5:54:40.7700,-0.57,-0.4,1.62,0.65,0.05,0.31
2022-12-08 5:54:40.7800,-0.47,-0.33,1.14,0.51,-0.03,0.32
2022-12-08 5:54:40.7900,-0.14,-0.34,0.65,0.24,-0.09,0.22
2022-12-08 5:54:40.8000,0.24,-0.33,0.41,-0.05,-0.14,0.06
2022-12-08 5:54:40.8110,0.55,-0.34,0.4,-0.26,-0.15,-0.13
2022-12-08 5:54:40.8200,0.76,-0.4,0.48,-0.33,-0.11,-0.28
2022-12-08 5:54:40.8300,0.83,-0.52,0.52,-0.27,-0.06,-0.37
2022-12-08 5:54:40.8400,0.81,-0.63,0.48,-0.14,-0.06,-0.37
2022-12-08 5:54:40.8500,0.69,-0.64,0.42,0.02,-0.06,-0.31
2022-12-08 5:54:40.8600,0.57,-0.53,0.16,0.1,0.02,-0.23
2022-12-08 5:54:40.8690,0.54,-0.42,-0.43,0.08,0.12,-0.14
2022-12-08 5:54:40.8790,0.54,-0.32,-0.98,-0.02,0.21,-0.09
2022-12-08 5:54:40.8890,0.46,-0.15,-1.29,-0.16,0.29,-0.06
2022-12-08 5:54:40.8990,0.39,0.01,-1.58,-0.27,0.33,-0.07
2022-12-08 5:54:40.9090,0.37,0.09,-1.64,-0.31,0.3,-0.11
2022-12-08 5:54:40.9190,0.25,0.11,-1.51,-0.25,0.21,-0.15
2022-12-08 5:54:40.9290,0.11,0.16,-1.34,-0.09,0.08,-0.19
2022-12-08 5:54:40.9390,-0.01,0.12,-1.21,0.12,-0.01,-0.22
2022-12-08 5:54:40.9490,0.02,0.02,-1.36,0.3,-0.07,-0.21
2022-12-08 5:54:40.9590,-0.01,0.13,-1.73,0.43,-0.1,-0.16
2022-12-08 5:54:40.9690,-0.06,0.22,-1.99,0.47,-0.1,-0.12
2022-12-08 5:54:40.9790,-0.06,0.3154242476820946,-2.23,0.43,-0.07,-0.09
2022-12-08 5:54:40.9890,-0.11,0.31,-2.23,0.34,-0.02,-0.07
2022-12-08 5:54:40.9990,-0.17,0.44,-2.46,0.23,0.0,-0.07
2022-12-08 5:54:41.0090,-0.23,0.48,-2.51,0.12,-0.03,-0.08
2022-12-08 5:54:41.0190,-0.21,0.41,-2.39,-0.0,-0.13,-0.08
2022-12-08 5:54:41.0290,-0.21,0.3,-2.12,-0.12,-0.27,-0.07
2022-12-08 5:54:41.0390,-0.26,0.33,-1.66,-0.16,-0.34,-0.04
2022-12-08 5:54:41.0490,-0.16,0.36,-1.35,-0.15,-0.32,-0.03
2022-12-08 5:54:41.0590,0.11,0.24,-1.19,-0.11,-0.23,-0.03
2022-12-08 5:54:41.0690,0.39,0.21,-0.96,-0.05,-0.04,-0.03
2022-12-08 5:54:41.0790,0.51,0.41,-0.91,0.01,0.19,-0.04
2022-12-08 5:54:41.0890,0.51,0.41,-0.91,0.04,0.35,-0.05
2022-12-08 5:54:41.0990,0.29,0.33,-0.73,0.07,0.44,-0.03
2022-12-08 5:54:41.1080,-0.01,0.36,-0.59,0.06,0.38,0.01
2022-12-08 5:54:41.1180,-0.23,0.3,-0.32,0.06,0.21,0.09
2022-12-08 5:54:41.1290,-0.36,0.29,0.12,0.11,0.03,0.17
2022-12-08 5:54:41.1380,-0.43,0.29,0.07,0.15,-0.18,0.23
2022-12-08 5:54:41.1480,-0.42,0.18,0.28,0.18,-0.33,0.26
2022-12-08 5:54:41.1580,-0.36,0.24,0.48,0.2,-0.36,0.23
2022-12-08 5:54:41.1680,0.09,0.15,0.17,0.14,-0.3,0.14
2022-12-08 5:54:41.1780,0.32,0.17,0.31,0.02,-0.2,0.03
2022-12-08 5:54:41.1880,0.32,0.17,0.31,-0.11,-0.07,-0.06
2022-12-08 5:54:41.1980,0.39,0.25,0.63,-0.2,0.06,-0.13
2022-12-08 5:54:41.2080,0.38,0.16,0.93,-0.23,0.14,-0.17
2022-12-08 5:54:41.2180,0.27,-0.08,1.31,-0.2,0.19,-0.14
2022-12-08 5:54:41.2280,0.08,-0.1,1.7,-0.15,0.27,-0.06
2022-12-08 5:54:41.2380,-0.08,-0.03,1.81,-0.08,0.37,0.05
2022-12-08 5:54:41.2480,-0.15,-0.03,1.72,-0.03,0.49,0.19
2022-12-08 5:54:41.2580,-0.23,0.09,1.4,-0.01,0.61,0.34
2022-12-08 5:54:41.2680,-0.38,0.44,0.93,-0.05,0.65,0.44
2022-12-08 5:54:41.2780,-0.47,0.61,0.7,-0.13,0.58,0.46
2022-12-08 5:54:41.2880,-0.47,0.61,0.7,-0.23,0.46,0.39
2022-12-08 5:54:41.2980,-0.38,0.45,0.9333606290817261,-0.36,0.27,0.24
2022-12-08 5:54:41.3080,-0.25,0.19,0.93,-0.49,0.05,0.07
2022-12-08 5:54:41.3170,-0.09,-0.07,1.42,-0.55,-0.15,-0.04
2022-12-08 5:54:41.3270,0.06,-0.18,1.88,-0.49,-0.24,-0.08
2022-12-08 5:54:41.3370,0.1,-0.28,2.02,-0.3,-0.23,-0.06
2022-12-08 5:54:41.3470,-0.07,-0.42,1.86,-0.02,-0.14,0.04
2022-12-08 5:54:41.3570,-0.27,-0.46,1.61,0.27,-0.04,0.21
2022-12-08 5:54:41.3670,-0.51,-0.43,1.41,0.46,0.01,0.38
2022-12-08 5:54:41.3770,-0.77,-0.38,1.08,0.5,0.02,0.5
2022-12-08 5:54:41.3870,-0.85,-0.16,0.56,0.4,-0.02,0.58
2022-12-08 5:54:41.3970,-0.85,-0.16,0.56,0.22,-0.06,0.6
2022-12-08 5:54:41.4070,-0.65,-0.09,0.42,-0.0,-0.09,0.55
2022-12-08 5:54:41.4170,-0.35,-0.04,0.36,-0.18,-0.09,0.45
2022-12-08 5:54:41.4270,-0.01,0.03,0.39,-0.29,-0.08,0.31
2022-12-08 5:54:41.4370,0.32,0.13,0.35,-0.34,-0.06,0.14
2022-12-08 5:54:41.4470,0.49,0.2,0.33,-0.33,-0.07,-0.02
2022-12-08 5:54:41.4570,0.44,0.23,0.37,-0.25,-0.08,-0.15
2022-12-08 5:54:41.4670,0.33,0.18,0.38,-0.12,-0.04,-0.23
2022-12-08 5:54:41.4770,0.22,0.16,0.27,0.06,0.01,-0.26
2022-12-08 5:54:41.4870,0.16,0.01,0.13,0.22,0.06,-0.24
2022-12-08 5:54:41.4970,0.1,-0.13,-0.03,0.31,0.09,-0.17
2022-12-08 5:54:41.5070,0.02,-0.11,-0.34,0.35,0.11,-0.07
2022-12-08 5:54:41.5160,-0.08,-0.15,-0.76,0.31,0.11,0.01
2022-12-08 5:54:41.5260,-0.16,-0.13,-1.15,0.21,0.12,0.08
2022-12-08 5:54:41.5360,-0.21,0.01,-1.48,0.08,0.11,0.1
2022-12-08 5:54:41.5460,-0.19,0.14,-1.7,-0.01,0.09,0.09
2022-12-08 5:54:41.5560,-0.15,0.25,-1.83,-0.05,0.04,0.04
2022-12-08 5:54:41.5660,-0.16,0.28,-1.9,-0.01,-0.03,-0.02
2022-12-08 5:54:41.5760,-0.26,0.26,-1.79,0.11,-0.09,-0.06
2022-12-08 5:54:41.5860,-0.28,0.29,-1.78,0.25,-0.13,-0.08
2022-12-08 5:54:41.5960,-0.26,0.2,-1.81,0.36,-0.15,-0.09
2022-12-08 5:54:41.6060,-0.26,0.13,-1.91,0.4,-0.12,-0.07
2022-12-08 5:54:41.6160,-0.25,0.17,-2.14,0.38,-0.04,-0.02
2022-12-08 5:54:41.6260,-0.11,0.21,-2.3,0.32,0.06,0.02
2022-12-08 5:54:41.6360,0.02,0.24,-2.39,0.24,0.13,0.03
2022-12-08 5:54:41.6460,-0.06,0.17,-2.31,0.19,0.12,0.03
2022-12-08 5:54:41.6560,-0.21,0.18,-2.03,0.2,0.07,0.05
2022-12-08 5:54:41.6660,-0.27,0.19,-1.82,0.26,-0.02,0.05
2022-12-08 5:54:41.6750,-0.37,0.13,-1.54,0.37,-0.1,0.06
2022-12-08 5:54:41.6860,-0.48,0.19,-1.41,0.46,-0.14,0.05
2022-12-08 5:54:41.6960,-0.51,0.22,-1.49,0.47,-0.12,0.02
2022-12-08 5:54:41.7060,-0.51,0.24,-1.71,0.41,-0.11,0.0
2022-12-08 5:54:41.7160,-0.53,0.38,-1.71,0.28,-0.11,-0.02
2022-12-08 5:54:41.7250,-0.52,0.45,-1.62,0.11,-0.1,-0.07
2022-12-08 5:54:41.7350,-0.5,0.4,-1.36,-0.02,-0.08,-0.12
2022-12-08 5:54:41.7450,-0.5,0.49,-0.93,-0.09,-0.11,-0.17
2022-12-08 5:54:41.7550,-0.59,0.34,-0.15,-0.08,-0.18,-0.19
2022-12-08 5:54:41.7650,-0.68,0.2,0.63,-0.02,-0.23,-0.17
2022-12-08 5:54:41.7750,-0.77,0.2,1.1,0.05,-0.24,-0.14
2022-12-08 5:54:41.7850,-0.76,0.08,1.36,0.08,-0.2,-0.11
2022-12-08 5:54:41.7950,-0.63,-0.08,1.51,0.04,-0.07,-0.08
2022-12-08 5:54:41.8050,-0.36,-0.19,1.59,-0.06,0.13,-0.06
2022-12-08 5:54:41.8150,-0.14,-0.21,1.58,-0.17,0.34,-0.01
2022-12-08 5:54:41.8250,-0.33,0.1,1.57,-0.21,0.52,0.09
2022-12-08 5:54:41.8350,-0.79,0.61,1.31,-0.21,0.54,0.15
2022-12-08 5:54:41.8450,-1.1,0.61,1.13,-0.2,0.36,0.17
2022-12-08 5:54:41.8550,-1.23,0.37,1.36,-0.22,0.06,0.15
2022-12-08 5:54:41.8650,-1.27,0.26,1.53,-0.27,-0.23,0.07
2022-12-08 5:54:41.8750,-1.02,0.03,1.74,-0.31,-0.34,-0.04
2022-12-08 5:54:41.8850,-0.54,-0.22,1.97,-0.28,-0.25,-0.13
2022-12-08 5:54:41.8950,-0.21,-0.39,1.91,-0.19,-0.06,-0.14
2022-12-08 5:54:41.9050,-0.22,-0.29,1.89,-0.04,0.12,-0.04
2022-12-08 5:54:41.9150,-0.4,-0.05,1.71,0.09,0.21,0.08
2022-12-08 5:54:41.9250,-0.58,-0.03,1.33,0.14,0.18,0.19
2022-12-08 5:54:41.9350,-0.72,-0.08,1.03,0.06,0.07,0.25
2022-12-08 5:54:41.9450,-0.63,-0.08,0.9,-0.14,-0.09,0.23
2022-12-08 5:54:41.9550,-0.36,-0.22,1.0,-0.39,-0.21,0.16
2022-12-08 5:54:41.9640,0.04,-0.21,1.31,-0.56,-0.22,0.07
2022-12-08 5:54:41.9740,0.45,-0.16,1.65,-0.61,-0.16,-0.06
2022-12-08 5:54:41.9840,0.78,-0.36,1.87,-0.55,-0.11,-0.2
2022-12-08 5:54:41.9940,0.85,-0.56,2.08,-0.4,-0.07,-0.29
2022-12-08 5:54:42.0040,0.73,-0.55,2.17,-0.21,-0.05,-0.3
2022-12-08 5:54:42.0140,0.64,-0.54,1.93,-0.02,-0.04,-0.23
2022-12-08 5:54:42.0240,0.58,-0.54,1.52,0.12,-0.03,-0.11
2022-12-08 5:54:42.0340,0.61,-0.5,1.09,0.2,0.02,0.02
2022-12-08 5:54:42.0440,0.64,-0.4,0.6,0.21,0.09,0.12
2022-12-08 5:54:42.0540,0.67,-0.27,0.06,0.19,0.17,0.18
2022-12-08 5:54:42.0640,0.65,-0.13,-0.33,0.18,0.25,0.22
2022-12-08 5:54:42.0740,0.62,-0.01,-0.79,0.21,0.33,0.23
2022-12-08 5:54:42.0840,0.61,0.05,-1.32,0.22,0.37,0.21
2022-12-08 5:54:42.0940,0.56,0.09,-1.72,0.21,0.36,0.17
2022-12-08 5:54:42.1040,0.47,0.21,-2.03,0.19,0.3,0.12
2022-12-08 5:54:42.1140,0.4,0.31,-2.23,0.17,0.22,0.05
2022-12-08 5:54:42.1230,0.4,0.33,-2.41,0.13,0.11,-0.01
2022-12-08 5:54:42.1330,0.38,0.31,-2.44,0.12,-0.02,-0.08
2022-12-08 5:54:42.1430,0.3,0.38,-2.3,0.14,-0.14,-0.15
2022-12-08 5:54:42.1530,0.3,0.39,-2.14,0.18,-0.21,-0.21
2022-12-08 5:54:42.1640,0.38,0.3,-2.04,0.21,-0.25,-0.26
2022-12-08 5:54:42.1730,0.36,0.23,-1.83,0.23,-0.25,-0.29
2022-12-08 5:54:42.1830,0.33,0.19,-1.66,0.24,-0.21,-0.28
2022-12-08 5:54:42.1930,0.34,0.17,-1.63,0.25,-0.12,-0.24
2022-12-08 5:54:42.2030,0.3,0.14,-1.67,0.26,-0.04,-0.17
2022-12-08 5:54:42.2130,0.29,0.14,-1.67,0.25,-0.01,-0.09
2022-12-08 5:54:42.2230,0.3,0.17,-1.51,0.23,-0.03,-0.03
2022-12-08 5:54:42.2330,0.3,0.19,-1.39,0.21,-0.05,0.0
2022-12-08 5:54:42.2430,0.36,0.22,-1.31,0.19,-0.04,-0.01
2022-12-08 5:54:42.2530,0.5,0.25,-1.36,0.18,-0.04,-0.05
2022-12-08 5:54:42.2630,0.59,0.3,-1.26,0.16,-0.02,-0.11
2022-12-08 5:54:42.2730,0.62,0.35,-1.13,0.17,0.01,-0.17
2022-12-08 5:54:42.2830,0.55,0.36,-0.89,0.23,0.06,-0.22
2022-12-08 5:54:42.2930,0.24,0.23,-0.68,0.31,0.09,-0.24
2022-12-08 5:54:42.3050,0.01,0.26,-0.63,0.37,0.08,-0.21
2022-12-08 5:54:42.3130,-0.2,0.3,-0.51,0.41,0.02,-0.14
2022-12-08 5:54:42.3230,-0.2,0.3,-0.51,0.4,-0.05,-0.05
2022-12-08 5:54:42.3320,-0.34,0.37,-0.4205153775215149,0.33,-0.11,0.03
2022-12-08 5:54:42.3430,-0.39,0.64,-0.27,0.22,-0.13,0.08
2022-12-08 5:54:42.3520,-0.39,0.64,-0.27,0.11,-0.12,0.08
2022-12-08 5:54:42.3620,-0.35,0.62,-0.05,0.0,-0.11,0.05
2022-12-08 5:54:42.3730,-0.2,0.51,0.31,-0.09,-0.13,-0.01
2022-12-08 5:54:42.3820,0.04,0.26,1.39,-0.16,-0.12,-0.07
2022-12-08 5:54:42.3920,0.04,0.26,1.39,-0.2,-0.09,-0.11
2022-12-08 5:54:42.4020,0.09,0.2,1.75,-0.21,-0.03,-0.14
2022-12-08 5:54:42.4120,0.09,0.16,2.01,-0.19,0.07,-0.14
2022-12-08 5:54:42.4270,0.01,0.21,2.06,-0.14,0.2,-0.11
2022-12-08 5:54:42.4340,0.01,0.21,2.06,-0.05,0.38,-0.0
2022-12-08 5:54:42.4420,-0.25,0.49,1.72,0.0,0.5,0.14
2022-12-08 5:54:42.4520,-0.5,0.69,1.34,-0.03,0.47,0.23
2022-12-08 5:54:42.4620,-0.65,0.56,1.29,-0.14,0.33,0.26
2022-12-08 5:54:42.4720,-0.68,0.43,1.25,-0.34,0.13,0.23
2022-12-08 5:54:42.4830,-0.2,0.02,1.99,-0.57,-0.1,0.13
2022-12-08 5:54:42.4910,-0.05,-0.1,2.41,-0.69,-0.24,0.0
2022-12-08 5:54:42.5020,-0.05,-0.1,2.41,-0.62,-0.24,-0.1
2022-12-08 5:54:42.5120,-0.13,-0.27,2.45,-0.41,-0.19,-0.15
2022-12-08 5:54:42.5220,-0.48,-0.45,2.52,-0.11,-0.15,-0.12
2022-12-08 5:54:42.5320,-0.97,-0.67,2.03,0.18,-0.1,-0.02
2022-12-08 5:54:42.5420,-1.01,-0.65,1.48,0.39,-0.06,0.16
2022-12-08 5:54:42.5520,-1.01,-0.65,1.48,0.49,-0.07,0.33
2022-12-08 5:54:42.5620,-1.08,-0.53,0.89,0.45,-0.11,0.46
2022-12-08 5:54:42.5760,-0.92,-0.47,0.55,0.33,-0.13,0.51
2022-12-08 5:54:42.5820,-0.92,-0.47,0.55,0.16,-0.12,0.48
2022-12-08 5:54:42.5910,-0.64,-0.49,0.29,-0.04,-0.09,0.38
2022-12-08 5:54:42.6010,-0.37,-0.45,0.21,-0.18,-0.06,0.25
2022-12-08 5:54:42.6110,-0.18,-0.38,0.16,-0.25,-0.03,0.13
2022-12-08 5:54:42.6210,-0.12,-0.38,0.2,-0.24,-0.06,0.04
2022-12-08 5:54:42.6310,-0.16,-0.5,0.3,-0.15,-0.11,-0.03
2022-12-08 5:54:42.6410,-0.24,-0.56,0.31,-0.04,-0.17,-0.04
2022-12-08 5:54:42.6510,-0.27,-0.58,0.14,0.05,-0.18,-0.02
2022-12-08 5:54:42.6610,-0.19,-0.6,-0.13,0.1,-0.15,0.01
2022-12-08 5:54:42.6710,-0.1,-0.59,-0.49,0.11,-0.08,0.03
2022-12-08 5:54:42.6810,-0.03,-0.49,-0.8,0.11,0.01,0.05
2022-12-08 5:54:42.6910,0.01,-0.36,-1.34,0.12,0.09,0.04
2022-12-08 5:54:42.7010,-0.1,-0.29,-1.54,0.12,0.14,0.01
2022-12-08 5:54:42.7110,-0.2,-0.19,-1.65,0.13,0.14,-0.02
2022-12-08 5:54:42.7210,-0.2,-0.19,-1.65,0.15,0.14,-0.05
2022-12-08 5:54:42.7310,-0.17,-0.18,-1.88,0.14,0.13,-0.12
2022-12-08 5:54:42.7410,-0.11,-0.25,-2.13,0.1,0.11,-0.19
2022-12-08 5:54:42.7500,-0.12,-0.23,-2.21,0.05,0.08,-0.23
2022-12-08 5:54:42.7600,-0.24,-0.06,-2.3,0.02,0.06,-0.23
2022-12-08 5:54:42.7710,-0.35,-0.05,-2.43,0.02,0.04,-0.2
2022-12-08 5:54:42.7810,-0.47,-0.07,-2.37,0.06,0.03,-0.15
2022-12-08 5:54:42.7910,-0.72,-0.06,-2.44,0.11,0.03,-0.1
2022-12-08 5:54:42.8000,-0.72,-0.06,-2.44,0.16,0.05,-0.04
2022-12-08 5:54:42.8100,-0.7808348393440246,0.02,-2.39,0.19,0.08,0.02
2022-12-08 5:54:42.8200,-0.79,0.02,-2.39,0.22,0.11,0.08
2022-12-08 5:54:42.8300,-0.76,0.04,-2.35,0.24,0.13,0.13
2022-12-08 5:54:42.8400,-0.72,0.1,-2.35,0.23,0.12,0.14
2022-12-08 5:54:42.8500,-0.56,0.18,-2.22,0.18,0.1,0.13
2022-12-08 5:54:42.8600,-0.31,0.32,-1.99,0.13,0.12,0.07
2022-12-08 5:54:42.8700,-0.16,0.48,-1.88,0.1,0.11,-0.01
2022-12-08 5:54:42.8800,-0.36,0.56,-1.11,0.12,0.07,-0.08
2022-12-08 5:54:42.8900,-0.36,0.56,-1.11,0.19,0.0,-0.12
2022-12-08 5:54:42.9000,-0.5,0.52,-0.72,0.28,-0.06,-0.13
2022-12-08 5:54:42.9100,-0.48,0.37,-0.39,0.33,-0.09,-0.12
2022-12-08 5:54:42.9200,-0.42,0.29,-0.15,0.31,-0.12,-0.08
2022-12-08 5:54:42.9300,-0.32,0.29,0.18,0.22,-0.15,-0.04
2022-12-08 5:54:42.9400,-0.25,0.32,0.56,0.14,-0.14,-0.04
2022-12-08 5:54:42.9500,-0.19,0.36,0.96,0.08,-0.08,-0.09
2022-12-08 5:54:42.9600,-0.18,0.35,1.16,0.06,-0.01,-0.15
2022-12-08 5:54:42.9700,-0.18,0.27,1.31,0.05,0.04,-0.21
2022-12-08 5:54:42.9790,-0.19,0.25,1.61,0.06,0.02,-0.23
2022-12-08 5:54:42.9900,-0.2,0.26,1.97,0.06,-0.03,-0.22
2022-12-08 5:54:43.0000,-0.14,0.18,2.24,0.06,-0.04,-0.2
2022-12-08 5:54:43.0100,-0.11,0.16,2.26,0.06,-0.06,-0.15
2022-12-08 5:54:43.0200,-0.21,0.34,2.21,0.02,-0.12,-0.14
2022-12-08 5:54:43.0290,-0.22,0.4,2.3053185653686525,-0.08,-0.21,-0.18
2022-12-08 5:54:43.0390,-0.16,0.22,2.3,-0.21,-0.25,-0.24
2022-12-08 5:54:43.0490,-0.03,0.17,2.36,-0.36,-0.21,-0.35
2022-12-08 5:54:43.0590,0.35276920806616546,-0.12,2.41,-0.46,-0.08,-0.47
2022-12-08 5:54:43.0690,0.35,-0.12,2.41,-0.48,0.13,-0.55
2022-12-08 5:54:43.0790,0.23,-0.01,2.17,-0.37,0.37,-0.52
2022-12-08 5:54:43.0890,-0.07,0.24,1.79,-0.16,0.59,-0.37
2022-12-08 5:54:43.0990,-0.07,0.24,1.79,0.07,0.7,-0.17
2022-12-08 5:54:43.1090,-0.42,0.26,1.27,0.22,0.64,-0.02
2022-12-08 5:54:43.1190,-0.87,0.29,0.95,0.3,0.49,0.1
2022-12-08 5:54:43.1290,-1.17,0.62,0.7,0.3,0.3,0.15
2022-12-08 5:54:43.1390,-1.17,0.71,0.31,0.2,0.06,0.09
2022-12-08 5:54:43.1490,-0.97,0.43,0.25,0.05,-0.16,-0.02
2022-12-08 5:54:43.1590,-0.62,0.28,0.29,-0.09,-0.32,-0.16
2022-12-08 5:54:43.1680,-0.16,0.08,0.32,-0.21,-0.4,-0.28
2022-12-08 5:54:43.1780,0.43,-0.32,0.45,-0.29,-0.45,-0.38
2022-12-08 5:54:43.1890,0.79,-0.64,0.73,-0.35,-0.44,-0.42
2022-12-08 5:54:43.1980,0.8,-0.65,0.99,-0.35,-0.36,-0.41
2022-12-08 5:54:43.2090,0.65,-0.54,1.0,-0.27,-0.21,-0.34
2022-12-08 5:54:43.2190,0.49,-0.5,0.71,-0.16,-0.03,-0.23
2022-12-08 5:54:43.2280,0.3,-0.43,0.38,-0.06,0.12,-0.09
2022-12-08 5:54:43.2380,0.12,-0.29,0.0,0.01,0.23,0.01
2022-12-08 5:54:43.2480,-0.05,-0.2,-0.44,0.06,0.28,0.09
2022-12-08 5:54:43.2580,-0.2,-0.06,-0.87,0.1,0.3,0.11
2022-12-08 5:54:43.2680,-0.26,0.01,-1.31,0.11,0.27,0.1
2022-12-08 5:54:43.2780,-0.22,0.03,-1.75,0.11,0.19,0.05
2022-12-08 5:54:43.2880,-0.16,0.06,-2.05,0.11,0.07,-0.01
2022-12-08 5:54:43.2980,-0.06,0.1,-2.26,0.13,-0.02,-0.07
2022-12-08 5:54:43.3080,0.09,0.1,-2.46,0.13,-0.05,-0.12
2022-12-08 5:54:43.3180,0.2,0.1,-2.6,0.12,-0.05,-0.15
2022-12-08 5:54:43.3280,0.2,0.1,-2.6,0.1,-0.05,-0.19
2022-12-08 5:54:43.3380,0.04,0.08,-2.51,0.07,-0.09,-0.21
2022-12-08 5:54:43.3480,-0.39,-0.04,-2.12,0.07,-0.15,-0.21
2022-12-08 5:54:43.3580,-0.39,-0.04,-2.12,0.09,-0.22,-0.2
2022-12-08 5:54:43.3680,-0.51,-0.13,-1.94,0.1,-0.31,-0.17
2022-12-08 5:54:43.3780,-0.58,-0.18,-1.71,0.11,-0.35,-0.13
2022-12-08 5:54:43.3870,-0.55,-0.19,-1.53,0.13,-0.35,-0.08
2022-12-08 5:54:43.3970,-0.46,-0.23,-1.34,0.15,-0.27,-0.03
2022-12-08 5:54:43.4070,-0.1,-0.3,-1.37,0.18,-0.16,0.02
2022-12-08 5:54:43.4170,-0.1,-0.3,-1.37,0.2,-0.08,0.07
2022-12-08 5:54:43.4270,-0.01,-0.24,-1.22,0.23,-0.03,0.11
2022-12-08 5:54:43.4420,0.14,0.05,-1.16,0.27,0.05,0.14
2022-12-08 5:54:43.4490,0.14,0.05,-1.16,0.3,0.12,0.13
2022-12-08 5:54:43.4570,0.09,0.16,-1.2,0.29,0.12,0.11
2022-12-08 5:54:43.4670,-0.28,0.38,-0.74,0.27,0.08,0.07
2022-12-08 5:54:43.4770,-0.28,0.38,-0.74,0.23,0.03,0.04
2022-12-08 5:54:43.4870,-0.3,0.35,-0.67,0.2,-0.01,0.02
2022-12-08 5:54:43.4970,-0.18,0.29,-0.51,0.16,-0.03,0.02
2022-12-08 5:54:43.5070,-0.08,0.21,-0.37,0.1,-0.03,0.02
2022-12-08 5:54:43.5170,-0.02,0.17,-0.13,0.01,0.0,0.03
2022-12-08 5:54:43.5270,-0.02,0.17,-0.13,-0.11,0.04,0.02
2022-12-08 5:54:43.5370,0.1,0.11,-0.07,-0.25,0.06,0.02
2022-12-08 5:54:43.5470,0.15,0.17,0.17,-0.36,0.06,0.01
2022-12-08 5:54:43.5570,0.08,0.27,0.52,-0.41,0.04,-0.03
2022-12-08 5:54:43.5670,-0.03,0.11,1.5,-0.39,0.03,-0.1
2022-12-08 5:54:43.5820,-0.13,0.11,1.89,-0.32,0.08,-0.15
2022-12-08 5:54:43.5880,-0.34,0.34,1.97,-0.23,0.19,-0.15
2022-12-08 5:54:43.5960,-0.34,0.34,1.97,-0.16,0.3,-0.08
2022-12-08 5:54:43.6060,-0.51,0.55,1.67,-0.18,0.31,-0.02
2022-12-08 5:54:43.6160,-0.23,0.16,1.64,-0.29,0.21,0.03
2022-12-08 5:54:43.6260,-0.23,0.16,1.64,-0.45,0.07,0.04
2022-12-08 5:54:43.6360,0.05,0.01,1.83,-0.58,-0.05,0.01
2022-12-08 5:54:43.6460,0.29,-0.18,2.16,-0.6,-0.11,-0.02
2022-12-08 5:54:43.6560,0.4,-0.26,2.86,-0.48,-0.05,-0.03
2022-12-08 5:54:43.6660,0.19,-0.25,2.72,-0.26,0.07,-0.02
2022-12-08 5:54:43.6760,0.19,-0.25,2.72,-0.05,0.2,0.02
2022-12-08 5:54:43.6860,-0.12,-0.11,2.43,0.06,0.26,0.07
2022-12-08 5:54:43.6960,-0.4,-0.02,2.04,0.05,0.2,0.13
2022-12-08 5:54:43.7060,-0.58,0.05,1.8,-0.03,0.11,0.19
2022-12-08 5:54:43.7160,-0.75,0.1,1.29,-0.16,-0.02,0.21
2022-12-08 5:54:43.7260,-0.75,0.1,1.29,-0.31,-0.18,0.19
2022-12-08 5:54:43.7360,-0.9,-0.08,1.36,-0.39,-0.34,0.16
2022-12-08 5:54:43.7460,-1.03,-0.11,1.52,-0.36,-0.46,0.16
2022-12-08 5:54:43.7560,-0.9,-0.24,1.69,-0.24,-0.53,0.16
2022-12-08 5:54:43.7660,-0.71,-0.45,1.72,-0.07,-0.5,0.18
2022-12-08 5:54:43.7760,-0.57,-0.54,1.44,0.08,-0.41,0.23
2022-12-08 5:54:43.7860,-0.43,-0.5,1.01,0.16,-0.32,0.28
2022-12-08 5:54:43.7950,-0.33,-0.39,0.52,0.15,-0.23,0.33
2022-12-08 5:54:43.8060,-0.21,-0.25,0.02,0.1,-0.1,0.34
2022-12-08 5:54:43.8160,-0.09,-0.1,-0.52,0.02,0.01,0.3
2022-12-08 5:54:43.8260,-0.08,-0.01,-0.91,-0.1,0.06,0.21
2022-12-08 5:54:43.8360,-0.15,0.1,-1.06,-0.23,0.05,0.11
2022-12-08 5:54:43.8450,-0.26,0.19,-1.21,-0.33,-0.02,-0.0
2022-12-08 5:54:43.8550,-0.4,0.14,-1.24,-0.37,-0.12,-0.08
2022-12-08 5:54:43.8650,-0.59,0.07,-1.14,-0.33,-0.17,-0.08
2022-12-08 5:54:43.8750,-0.66,0.06,-1.26,-0.25,-0.18,-0.04
2022-12-08 5:54:43.8850,-0.66,0.02,-1.43,-0.15,-0.16,0.03
2022-12-08 5:54:43.8950,-0.7,0.06,-1.56,-0.08,-0.08,0.12
2022-12-08 5:54:43.9050,-0.67,0.14,-1.95,-0.05,-0.01,0.19
2022-12-08 5:54:43.9150,-0.64,0.11,-2.23,-0.07,0.05,0.22
2022-12-08 5:54:43.9250,-0.55,0.12,-2.32,-0.11,0.08,0.22
2022-12-08 5:54:43.9350,-0.42,0.2,-2.25,-0.15,0.08,0.2
2022-12-08 5:54:43.9450,-0.37,0.22,-2.12,-0.18,0.04,0.15
2022-12-08 5:54:43.9550,-0.53,0.18,-1.94,-0.16,-0.05,0.1
2022-12-08 5:54:43.9650,-0.82,0.19,-1.66,-0.09,-0.15,0.08
2022-12-08 5:54:43.9750,-1.02,0.25,-1.44,0.02,-0.19,0.1
2022-12-08 5:54:43.9850,-0.9,0.06,-1.4,0.13,-0.2,0.14
2022-12-08 5:54:43.9950,-0.9,0.06,-1.4,0.23,-0.18,0.2
2022-12-08 5:54:44.0050,-0.96,0.1,-1.19,0.32,-0.11,0.27
2022-12-08 5:54:44.0150,-0.87,0.12,-1.22,0.39,0.0,0.35
2022-12-08 5:54:44.0250,-0.66,0.08,-1.36,0.4,0.08,0.42
2022-12-08 5:54:44.0350,-0.59,0.16,-1.29,0.36,0.1,0.43
2022-12-08 5:54:44.0450,-0.58,0.29,-1.13,0.29,0.11,0.41
2022-12-08 5:54:44.0540,-0.49,0.31,-0.93,0.26,0.14,0.35
2022-12-08 5:54:44.0640,-0.29,0.4,-0.74,0.26,0.14,0.28
2022-12-08 5:54:44.0740,-0.21,0.42,-0.37,0.3,0.11,0.2
2022-12-08 5:54:44.0840,-0.1,0.3,0.21,0.35,0.09,0.13
2022-12-08 5:54:44.0940,-0.07,0.17,0.37,0.4,0.07,0.07
2022-12-08 5:54:44.1040,-0.07,0.17,0.37,0.42,0.05,0.03
2022-12-08 5:54:44.1140,-0.13,0.04,0.61,0.42,0.03,-0.01
2022-12-08 5:54:44.1240,-0.13,0.04,0.61,0.42,0.0,-0.05
2022-12-08 5:54:44.1340,-0.16,-0.09,0.69,0.42,-0.0,-0.08
2022-12-08 5:54:44.1440,-0.15,-0.26,0.8,0.41,0.0,-0.1
2022-12-08 5:54:44.1540,-0.14,-0.37,0.91,0.37,-0.0,-0.11
2022-12-08 5:54:44.1640,-0.06,-0.43,1.14,0.29,0.02,-0.13
2022-12-08 5:54:44.1740,-0.01,-0.49,1.24,0.2,0.04,-0.15
2022-12-08 5:54:44.1840,0.06,-0.55,1.37,0.1,0.06,-0.18
2022-12-08 5:54:44.1940,0.21,-0.64,1.53,0.03,0.11,-0.22
2022-12-08 5:54:44.2040,0.26,-0.71,1.66,-0.01,0.16,-0.26
2022-12-08 5:54:44.2140,0.22,-0.72,1.72,0.03,0.2,-0.27
2022-12-08 5:54:44.2240,0.03,-0.61,1.9,0.15,0.23,-0.2
2022-12-08 5:54:44.2340,-0.32,-0.21,1.69,0.27,0.21,-0.17
2022-12-08 5:54:44.2440,-0.48,-0.45,1.0,0.31,0.14,-0.17
2022-12-08 5:54:44.2540,-0.48,-0.45,1.0,0.21,0.08,-0.2
2022-12-08 5:54:44.2640,-0.38,-0.28,0.53,-0.02,0.04,-0.29
2022-12-08 5:54:44.2730,0.22,-0.67,0.26,-0.3,0.05,-0.45
2022-12-08 5:54:44.2860,0.22,-0.67,0.26,-0.52,0.13,-0.58
2022-12-08 5:54:44.2930,0.28,-0.59,0.42,-0.59,0.27,-0.62
2022-12-08 5:54:44.3030,0.19,-0.31,0.69,-0.45,0.45,-0.58
2022-12-08 5:54:44.3130,0.12,-0.19,0.75,-0.2,0.61,-0.44
2022-12-08 5:54:44.3230,-0.28,0.05,0.18,0.06,0.66,-0.24
2022-12-08 5:54:44.3330,-0.28,0.05,0.18,0.25,0.62,-0.03
2022-12-08 5:54:44.3430,-0.43,0.29,-0.12,0.36,0.56,0.14
2022-12-08 5:54:44.3530,-0.32,0.34,-0.64,0.34,0.5,0.25
2022-12-08 5:54:44.3640,0.02,0.22,-1.08,0.22,0.37,0.28
2022-12-08 5:54:44.3730,0.32,0.17,-1.16,0.04,0.2,0.24
2022-12-08 5:54:44.3830,0.75,0.12,-0.79,-0.13,0.04,0.15
2022-12-08 5:54:44.3930,0.75,0.12,-0.79,-0.26,-0.1,0.02
2022-12-08 5:54:44.4030,0.93,0.0,-0.66,-0.35,-0.22,-0.12
2022-12-08 5:54:44.4130,0.92,-0.03,-0.41,-0.39,-0.32,-0.24
2022-12-08 5:54:44.4230,0.76,0.01,-0.2,-0.37,-0.39,-0.32
2022-12-08 5:54:44.4330,0.62,0.0,-0.06,-0.3,-0.38,-0.34
2022-12-08 5:54:44.4420,0.59,-0.03,-0.03,-0.23,-0.32,-0.31
2022-12-08 5:54:44.4530,0.62,-0.05,-0.09,-0.2,-0.22,-0.25
2022-12-08 5:54:44.4630,0.64,-0.02,-0.21,-0.2,-0.11,-0.16
2022-12-08 5:54:44.4730,0.65,0.03,-0.38,-0.23,-0.0,-0.08
2022-12-08 5:54:44.4820,0.64,0.07,-0.55,-0.25,0.09,-0.03
2022-12-08 5:54:44.4920,0.62,0.15,-0.78,-0.24,0.17,-0.01
2022-12-08 5:54:44.5020,0.63,0.22,-1.0,-0.2,0.18,-0.03
2022-12-08 5:54:44.5120,0.58,0.23,-1.11,-0.12,0.1,-0.08
2022-12-08 5:54:44.5220,0.43,0.25,-1.09,-0.02,-0.0,-0.14
2022-12-08 5:54:44.5320,0.33,0.30289614960551264,-1.46,0.09,-0.08,-0.2
2022-12-08 5:54:44.5420,0.29,0.3,-1.46,0.17,-0.12,-0.24
2022-12-08 5:54:44.5520,0.23,0.34,-1.69,0.19,-0.12,-0.26
2022-12-08 5:54:44.5620,0.15,0.42,-1.92,0.15,-0.09,-0.26
2022-12-08 5:54:44.5720,0.08,0.46,-2.09,0.09,-0.05,-0.24
2022-12-08 5:54:44.5820,0.02,0.49,-2.14,0.04,-0.01,-0.2
2022-12-08 5:54:44.5920,-0.08,0.51,-1.94,0.01,0.01,-0.16
2022-12-08 5:54:44.6020,-0.08,0.51,-1.94,0.04,-0.0,-0.12
2022-12-08 5:54:44.6120,-0.17,0.47,-1.69,0.12,0.0,-0.08
2022-12-08 5:54:44.6220,-0.17,0.45,-1.54,0.21,0.03,-0.03
2022-12-08 5:54:44.6320,-0.05,0.42,-1.58,0.25,0.06,-0.02
2022-12-08 5:54:44.6410,0.05,0.4,-1.61,0.21,0.07,-0.03
2022-12-08 5:54:44.6520,0.09,0.41,-1.55,0.12,0.07,-0.08
2022-12-08 5:54:44.6610,0.12,0.45,-1.42,0.01,0.04,-0.14
2022-12-08 5:54:44.6710,0.12,0.45,-1.24,-0.06,-0.04,-0.2
2022-12-08 5:54:44.6820,-0.04,0.36,-0.75,-0.01,-0.13,-0.22
2022-12-08 5:54:44.6910,-0.34,0.27,-0.25,0.12,-0.16,-0.19
2022-12-08 5:54:44.7010,-0.49,0.18,-0.15,0.27,-0.17,-0.12
2022-12-08 5:54:44.7110,-0.56,0.08,-0.04,0.38,-0.13,-0.01
2022-12-08 5:54:44.7210,-0.55,0.11,-0.03,0.39,-0.06,0.1
2022-12-08 5:54:44.7310,-0.24,0.11,-0.26,0.3,-0.02,0.18
2022-12-08 5:54:44.7410,-0.24,0.11,-0.26,0.14,0.01,0.2
2022-12-08 5:54:44.7510,-0.03,0.12,-0.16,-0.05,0.03,0.15
2022-12-08 5:54:44.7610,0.28,-0.03,0.73,-0.2,0.02,0.06
2022-12-08 5:54:44.7710,0.28,-0.03,0.73,-0.22,0.01,-0.02
2022-12-08 5:54:44.7810,0.23,-0.09,1.26,-0.13,0.06,-0.04
2022-12-08 5:54:44.7910,0.15,-0.13,1.45,0.02,0.13,0.01
2022-12-08 5:54:44.8010,0.08,-0.19,1.48,0.14,0.21,0.14
2022-12-08 5:54:44.8110,-0.11,0.02,1.24,0.18,0.26,0.28
2022-12-08 5:54:44.8210,-0.4,0.33,0.86,0.14,0.25,0.36
2022-12-08 5:54:44.8310,-0.55,0.35,0.59,0.01,0.17,0.39
2022-12-08 5:54:44.8410,-0.45,0.08963576942682266,0.66,-0.2,0.04,0.37
2022-12-08 5:54:44.8510,-0.18,0.03895532011985779,1.1,-0.44,-0.12,0.31
2022-12-08 5:54:44.8610,0.16,0.03,1.1,-0.65,-0.26,0.18
2022-12-08 5:54:44.8710,0.44,-0.11,1.85,-0.73,-0.31,0.05
2022-12-08 5:54:44.8810,0.57,-0.2,2.41,-0.64,-0.23,-0.06
2022-12-08 5:54:44.8910,0.5,-0.28,2.5,-0.45,-0.14,-0.12
2022-12-08 5:54:44.9000,0.31,-0.4,2.5,-0.26,-0.11,-0.1
2022-12-08 5:54:44.9110,0.06,-0.46,2.54,-0.1,-0.1,-0.0
2022-12-08 5:54:44.9200,-0.13,-0.39,2.32,-0.02,-0.1,0.11
2022-12-08 5:54:44.9300,-0.29,-0.32,1.98,-0.03,-0.09,0.19
2022-12-08 5:54:44.9400,-0.43,-0.29,1.72,-0.1,-0.09,0.23
2022-12-08 5:54:44.9500,-0.5,-0.28,1.68,-0.17,-0.09,0.24
2022-12-08 5:54:44.9600,-0.52,-0.28,1.74,-0.22,-0.13,0.21
2022-12-08 5:54:44.9700,-0.46,-0.31,1.8,-0.2,-0.19,0.18
2022-12-08 5:54:44.9800,-0.4,-0.38,1.84,-0.12,-0.24,0.15
2022-12-08 5:54:44.9900,-0.33,-0.37,1.82,-0.01,-0.28,0.12
2022-12-08 5:54:45.0000,-0.27,-0.4,1.68,0.1,-0.31,0.1
2022-12-08 5:54:45.0100,-0.18,-0.45,1.45,0.17,-0.3,0.07
2022-12-08 5:54:45.0200,-0.1,-0.43,1.11,0.18,-0.25,0.05
2022-12-08 5:54:45.0300,0.1,-0.31,0.2,0.16,-0.13,0.02
2022-12-08 5:54:45.0400,0.1,-0.31,0.2,0.1,0.01,-0.01
2022-12-08 5:54:45.0500,0.06,-0.21,-0.48,0.02,0.15,-0.03
2022-12-08 5:54:45.0600,0.06,-0.21,-0.48,-0.04,0.27,-0.04
2022-12-08 5:54:45.0700,-0.13,-0.03,-0.91,-0.08,0.36,-0.02
2022-12-08 5:54:45.0790,-0.2,0.05,-1.22,-0.08,0.39,-0.02
2022-12-08 5:54:45.0900,-0.2,0.05,-1.22,-0.03,0.32,-0.02
2022-12-08 5:54:45.0990,-0.26,0.07,-1.31,0.05,0.19,-0.04
2022-12-08 5:54:45.1100,-0.29,0.08,-1.37,0.13,0.03,-0.07
2022-12-08 5:54:45.1200,-0.32,0.05,-1.48,0.23,-0.07,-0.1
2022-12-08 5:54:45.1290,-0.28,0.05,-1.65,0.3,-0.11,-0.13
2022-12-08 5:54:45.1390,-0.27,0.07,-1.85,0.33,-0.1,-0.16
2022-12-08 5:54:45.1490,-0.36,0.14,-1.99,0.32,-0.06,-0.15
2022-12-08 5:54:45.1590,-0.45,0.22,-2.13,0.26,-0.01,-0.12
2022-12-08 5:54:45.1690,-0.5,0.23,-2.25,0.17,0.03,-0.07
2022-12-08 5:54:45.1790,-0.55,0.24,-2.28,0.08,0.04,-0.02
2022-12-08 5:54:45.1890,-0.58,0.27,-2.2,0.02,0.04,0.03
2022-12-08 5:54:45.1990,-0.5,0.29,-2.06,-0.02,0.06,0.07
2022-12-08 5:54:45.2090,-0.31,0.41,-1.85,-0.02,0.09,0.1
2022-12-08 5:54:45.2190,-0.31,0.41,-1.85,-0.01,0.1,0.1
2022-12-08 5:54:45.2290,-0.14,0.47,-1.69,0.03,0.12,0.07
2022-12-08 5:54:45.2390,-0.07,0.5,-1.58,0.08,0.1,0.03
2022-12-08 5:54:45.2490,-0.1,0.5,-1.42,0.17,0.03,-0.02
2022-12-08 5:54:45.2590,-0.23,0.52,-1.09,0.32,-0.01,-0.06
2022-12-08 5:54:45.2690,-0.26,0.5,-0.94,0.48,-0.03,-0.08
2022-12-08 5:54:45.2790,-0.26,0.35,-0.96,0.58,-0.08,-0.09
2022-12-08 5:54:45.2890,-0.31,0.27,-0.94,0.59,-0.14,-0.07
2022-12-08 5:54:45.2990,-0.34,0.26,-0.94,0.53,-0.17,-0.06
2022-12-08 5:54:45.3090,-0.31,0.22,-0.91,0.42,-0.15,-0.06
2022-12-08 5:54:45.3190,-0.26,0.19,-0.83,0.28,-0.11,-0.06
2022-12-08 5:54:45.3290,-0.16,0.12,-0.64,0.13,-0.06,-0.08
2022-12-08 5:54:45.3380,0.05,-0.17,0.32,0.01,-0.01,-0.12
2022-12-08 5:54:45.3490,0.18,-0.36,0.85,-0.05,0.04,-0.17
2022-12-08 5:54:45.3580,0.18,-0.36,0.85,-0.05,0.1,-0.21
2022-12-08 5:54:45.3680,0.25,-0.49,1.3,0.03,0.12,-0.21
2022-12-08 5:54:45.3780,0.19,-0.57,1.66,0.14,0.08,-0.19
2022-12-08 5:54:45.3880,0.03,-0.65,1.91,0.25,0.04,-0.14
2022-12-08 5:54:45.3980,-0.08,-0.62,1.85,0.35,-0.02,-0.07
2022-12-08 5:54:45.4080,-0.07,-0.56,1.69,0.39,-0.02,-0.0
2022-12-08 5:54:45.4230,-0.24,-0.1,1.1,0.39,0.02,0.06
2022-12-08 5:54:45.4300,-0.24,-0.1,1.1,0.33,0.05,0.08
2022-12-08 5:54:45.4380,-0.23,-0.05,0.79,0.21,0.03,0.06
2022-12-08 5:54:45.4480,-0.06,-0.22,0.66,0.0,-0.03,-0.02
2022-12-08 5:54:45.4580,0.2,-0.27,0.57,-0.26,-0.09,-0.15
2022-12-08 5:54:45.4680,0.49,-0.4487498277425766,0.95,-0.53,-0.13,-0.32
2022-12-08 5:54:45.4780,0.72,-0.45,0.95,-0.67,-0.09,-0.48
2022-12-08 5:54:45.4880,0.72,-0.49,1.29,-0.62,0.01,-0.53
2022-12-08 5:54:45.4980,0.23,-0.4,1.27,-0.4,0.15,-0.5
2022-12-08 5:54:45.5080,0.23,-0.4,1.27,-0.14,0.2,-0.39
2022-12-08 5:54:45.5180,-0.29,-0.27,0.7,0.04,0.16,-0.25
2022-12-08 5:54:45.5280,-0.29,-0.27,0.7,0.08,0.06,-0.13
2022-12-08 5:54:45.5370,-0.35,-0.1,0.36,-0.02,-0.07,-0.07
2022-12-08 5:54:45.5470,-0.04,0.01,0.18,-0.23,-0.18,-0.09
2022-12-08 5:54:45.5570,-0.04,0.01,0.18,-0.45,-0.24,-0.16
2022-12-08 5:54:45.5670,0.15,0.02,0.37,-0.61,-0.25,-0.24
2022-12-08 5:54:45.5770,0.36,-0.06,0.820645022392273,-0.63,-0.23,-0.3
2022-12-08 5:54:45.5870,0.51,-0.15,0.82,-0.55,-0.18,-0.32
2022-12-08 5:54:45.5970,0.31,-0.3,1.05,-0.39,-0.16,-0.3
2022-12-08 5:54:45.6070,0.24,-0.29,0.9,-0.21,-0.14,-0.22
2022-12-08 5:54:45.6170,0.24,-0.2921584689617157,0.51,-0.06,-0.1,-0.11
2022-12-08 5:54:45.6270,0.36,-0.3,0.51,0.01,-0.07,-0.01
2022-12-08 5:54:45.6370,0.47,-0.26,0.26,0.03,-0.01,0.05
2022-12-08 5:54:45.6470,0.52,-0.11,0.06,0.03,0.06,0.08
2022-12-08 5:54:45.6570,0.62,0.09,-0.6,0.03,0.15,0.08
2022-12-08 5:54:45.6670,0.62,0.09,-0.6,0.04,0.21,0.07
2022-12-08 5:54:45.6770,0.69,0.15,-0.82,0.04,0.21,0.02
2022-12-08 5:54:45.6870,0.71,0.21,-0.89,0.03,0.18,-0.04
2022-12-08 5:54:45.6970,0.66,0.29,-0.99,0.05,0.15,-0.12
2022-12-08 5:54:45.7070,0.6,0.28,-1.06,0.07,0.1,-0.21
2022-12-08 5:54:45.7170,0.47,0.22,-1.05,0.12,0.07,-0.25
2022-12-08 5:54:45.7260,0.34,0.27,-1.08,0.19,0.07,-0.26
2022-12-08 5:54:45.7370,0.35,0.21,-1.22,0.25,0.09,-0.25
2022-12-08 5:54:45.7460,0.4,0.07,-1.38,0.27,0.09,-0.22
2022-12-08 5:54:45.7560,0.41,0.06,-1.45,0.25,0.08,-0.18
2022-12-08 5:54:45.7660,0.4,0.13,-1.42,0.25,0.07,-0.14
2022-12-08 5:54:45.7760,0.47,0.18,-1.49,0.26,0.09,-0.1
2022-12-08 5:54:45.7860,0.54,0.13,-1.56,0.27,0.12,-0.09
2022-12-08 5:54:45.8010,0.59,0.21,-1.72,0.3,0.15,-0.09
2022-12-08 5:54:45.8060,0.59,0.21,-1.72,0.31,0.15,-0.12
2022-12-08 5:54:45.8160,0.64,0.21,-1.69,0.3,0.12,-0.16
2022-12-08 5:54:45.8260,0.64,0.21,-1.69,0.29,0.05,-0.22
2022-12-08 5:54:45.8360,0.61,0.18,-1.61,0.27,-0.03,-0.28
2022-12-08 5:54:45.8460,0.52,0.17,-1.47,0.27,-0.1,-0.31
2022-12-08 5:54:45.8560,0.4,0.15,-1.4,0.28,-0.16,-0.32
2022-12-08 5:54:45.8660,0.19,0.16,-1.23,0.33,-0.2,-0.3
2022-12-08 5:54:45.8760,-0.01,0.13,-1.16,0.38,-0.19,-0.25
2022-12-08 5:54:45.8860,-0.14,0.08,-1.18,0.41,-0.16,-0.2
2022-12-08 5:54:45.8960,-0.24,0.04,-1.2,0.37,-0.12,-0.14
2022-12-08 5:54:45.9060,-0.26,0.03,-1.17,0.27,-0.07,-0.09
2022-12-08 5:54:45.9150,-0.2,0.02,-1.13,0.12,-0.04,-0.06
2022-12-08 5:54:45.9260,-0.15,0.0,-0.98,-0.04,-0.01,-0.05
2022-12-08 5:54:45.9350,-0.1,-0.01,-0.7,-0.16,0.03,-0.07
2022-12-08 5:54:45.9450,-0.04,-0.06,-0.42,-0.22,0.04,-0.11
2022-12-08 5:54:45.9550,-0.15,-0.14,0.05,-0.22,-0.0,-0.14
2022-12-08 5:54:45.9650,-0.36,-0.24,0.9090584313869476,-0.18,-0.05,-0.15
2022-12-08 5:54:45.9750,-0.49,-0.34,0.9,-0.11,-0.05,-0.11
2022-12-08 5:54:45.9850,-0.51,-0.39,1.07,-0.04,0.04,-0.02
2022-12-08 5:54:45.9950,-0.58,-0.23,0.5756256365776062,0.01,0.18,0.11
2022-12-08 5:54:46.0050,-0.84,0.15,0.57,0.01,0.21,0.22
2022-12-08 5:54:46.0150,-1.13,0.19,0.43,-0.06,0.07,0.29
2022-12-08 5:54:46.0250,-1.21,0.01,0.55,-0.19,-0.14,0.33
2022-12-08 5:54:46.0350,-1.08,-0.06,0.74,-0.36,-0.31,0.32
2022-12-08 5:54:46.0450,-0.74,-0.19,0.85,-0.53,-0.44,0.27
2022-12-08 5:54:46.0550,-0.3,-0.36,1.4,-0.61,-0.45,0.2
2022-12-08 5:54:46.0650,0.08,-0.43,2.01,-0.58,-0.29,0.14
2022-12-08 5:54:46.0750,0.21,-0.43,2.23,-0.47,-0.06,0.12
2022-12-08 5:54:46.0850,0.16,-0.44,2.18,-0.33,0.11,0.17
2022-12-08 5:54:46.0950,-0.25,-0.37,2.07,-0.21,0.19,0.27
2022-12-08 5:54:46.1050,-0.25,-0.37,2.07,-0.13,0.2,0.39
2022-12-08 5:54:46.1150,-0.42,-0.2,2.0,-0.09,0.17,0.51
2022-12-08 5:54:46.1260,-0.48,-0.03,1.85,-0.1,0.13,0.56
2022-12-08 5:54:46.1350,-0.4,0.02,1.57,-0.15,0.04,0.56
2022-12-08 5:54:46.1440,-0.34,0.11,1.54,-0.23,-0.09,0.5
2022-12-08 5:54:46.1540,-0.34,0.25,1.53,-0.33,-0.21,0.36
2022-12-08 5:54:46.1640,-0.3,0.22,1.51,-0.38,-0.32,0.23
2022-12-08 5:54:46.1740,-0.28,0.23,1.54,-0.36,-0.39,0.13
2022-12-08 5:54:46.1840,-0.2,0.21,1.55,-0.3,-0.39,0.05
2022-12-08 5:54:46.1940,-0.12,0.02,1.46,-0.23,-0.37,0.02
2022-12-08 5:54:46.2040,-0.15,-0.04,1.34,-0.17,-0.32,0.02
2022-12-08 5:54:46.2140,-0.24,-0.03,1.12,-0.11,-0.25,0.04
2022-12-08 5:54:46.2240,-0.24,-0.12,0.78,-0.08,-0.18,0.07
2022-12-08 5:54:46.2340,-0.19,-0.18,0.41,-0.06,-0.1,0.1
2022-12-08 5:54:46.2440,-0.18,-0.14,0.1,-0.02,0.0,0.12
2022-12-08 5:54:46.2540,-0.09,-0.08,-0.13,0.02,0.12,0.1
2022-12-08 5:54:46.2640,0.0,-0.15,-0.49,0.05,0.22,0.07
2022-12-08 5:54:46.2740,-0.01,-0.12,-0.82,0.05,0.27,0.04
2022-12-08 5:54:46.2840,-0.08,-0.03,-1.07,0.04,0.27,0.0
2022-12-08 5:54:46.2940,-0.16,-0.03,-1.22,0.03,0.26,-0.03
2022-12-08 5:54:46.3040,-0.25,0.02,-1.46,0.04,0.24,-0.05
2022-12-08 5:54:46.3140,-0.29,0.05,-1.74,0.06,0.22,-0.07
2022-12-08 5:54:46.3240,-0.28,0.0548419126868248,-2.03,0.1,0.2,-0.09
2022-12-08 5:54:46.3340,-0.35,0.05,-2.03,0.14,0.18,-0.08
2022-12-08 5:54:46.3440,-0.37,0.07,-2.12,0.16,0.18,-0.06
2022-12-08 5:54:46.3540,-0.36,0.02,-2.22,0.15,0.16,-0.05
2022-12-08 5:54:46.3640,-0.42,-0.01,-2.27,0.13,0.1,-0.02
2022-12-08 5:54:46.3730,-0.53,0.05,-2.15,0.13,0.07,0.02
2022-12-08 5:54:46.3830,-0.51,0.1,-2.16,0.14,0.05,0.06
2022-12-08 5:54:46.3930,-0.43,0.02,-2.24,0.14,0.03,0.08
2022-12-08 5:54:46.4030,-0.44,0.04,-2.18,0.14,-0.01,0.1
2022-12-08 5:54:46.4130,-0.47,0.14,-2.07,0.14,-0.05,0.11
2022-12-08 5:54:46.4240,-0.41,0.22,-1.95,0.14,-0.06,0.11
2022-12-08 5:54:46.4330,-0.29,0.28,-1.87,0.16,-0.06,0.1
2022-12-08 5:54:46.4430,-0.17,0.3,-1.75,0.17,-0.06,0.08
2022-12-08 5:54:46.4530,-0.07,0.3,-1.53,0.17,-0.08,0.05
2022-12-08 5:54:46.4630,0.02,0.26,-1.07,0.17,-0.08,0.0
2022-12-08 5:54:46.4730,0.02,0.26,-1.07,0.18,-0.08,-0.04
2022-12-08 5:54:46.4830,0.04,0.18,-0.73,0.23,-0.08,-0.07
2022-12-08 5:54:46.4930,-0.01,0.05,-0.41,0.28,-0.06,-0.06
2022-12-08 5:54:46.5030,-0.04,0.02,-0.33,0.31,-0.05,-0.02
2022-12-08 5:54:46.5130,-0.06,0.0,-0.19,0.3,-0.03,0.03
2022-12-08 5:54:46.5230,-0.03,-0.02,-0.11,0.23,0.02,0.06
2022-12-08 5:54:46.5330,0.04,-0.03,-0.1,0.13,0.06,0.06
2022-12-08 5:54:46.5430,0.11,-0.02,0.1,0.01,0.07,0.01
2022-12-08 5:54:46.5530,0.16,-0.04,0.43,-0.09,0.03,-0.07
2022-12-08 5:54:46.5630,0.21874119468033315,-0.23,1.46,-0.14,-0.04,-0.17
2022-12-08 5:54:46.5730,0.21,-0.23,1.46,-0.13,-0.1,-0.25
2022-12-08 5:54:46.5830,0.18,-0.31,1.94,-0.07,-0.12,-0.31
2022-12-08 5:54:46.5930,0.18,-0.31,1.94,-0.0,-0.05,-0.32
2022-12-08 5:54:46.6020,0.02,-0.11,1.82,0.03,0.03,-0.31
2022-12-08 5:54:46.6120,-0.05,-0.08,1.57,-0.03,0.01,-0.32
2022-12-08 5:54:46.6220,-0.09,-0.33,1.59,-0.16,-0.03,-0.31
2022-12-08 5:54:46.6320,-0.08,-0.29,1.57,-0.33,-0.02,-0.31
2022-12-08 5:54:46.6420,0.1,-0.26,1.44,-0.52,0.04,-0.33
2022-12-08 5:54:46.6520,0.27,-0.44,1.88,-0.66,0.12,-0.38
2022-12-08 5:54:46.6620,0.27,-0.44,1.88,-0.68,0.23,-0.39
2022-12-08 5:54:46.6720,0.17,-0.37,2.06,-0.58,0.32,-0.34
2022-12-08 5:54:46.6820,0.01,-0.27,2.14,-0.4,0.37,-0.24
2022-12-08 5:54:46.6920,-0.2,-0.18,2.13,-0.21,0.37,-0.11
2022-12-08 5:54:46.7020,-0.35,-0.06,1.93,-0.04,0.37,0.03
2022-12-08 5:54:46.7120,-0.45,0.14,1.45,0.07,0.36,0.13
2022-12-08 5:54:46.7220,-0.47,0.27,0.89,0.14,0.33,0.21
2022-12-08 5:54:46.7320,-0.36,0.39,0.48,0.14,0.32,0.24
2022-12-08 5:54:46.7420,0.16,0.34,-0.31,0.07,0.31,0.21
2022-12-08 5:54:46.7520,0.16,0.34,-0.31,-0.06,0.23,0.12
2022-12-08 5:54:46.7620,0.54,0.26,-0.2,-0.19,0.08,-0.01
2022-12-08 5:54:46.7720,0.69,0.14,0.2,-0.23,-0.11,-0.16
2022-12-08 5:54:46.7820,0.64,0.01,0.74,-0.14,-0.23,-0.3
2022-12-08 5:54:46.7920,0.62,-0.21,0.95,0.03,-0.26,-0.36
2022-12-08 5:54:46.8010,0.62,-0.42,0.86,0.19,-0.25,-0.34
2022-12-08 5:54:46.8110,0.54,-0.44,0.79,0.28,-0.21,-0.26
2022-12-08 5:54:46.8220,0.49,-0.39,0.52,0.25,-0.11,-0.14
2022-12-08 5:54:46.8310,0.5,-0.18,-0.29,0.12,0.03,-0.04
2022-12-08 5:54:46.8410,0.5,-0.18,-0.29,-0.08,0.16,0.02
2022-12-08 5:54:46.8510,0.46,0.03,-0.41,-0.23,0.27,0.03
2022-12-08 5:54:46.8610,0.45,0.22,-0.41,-0.3,0.33,0.01
2022-12-08 5:54:46.8710,0.34,0.39,-0.29,-0.24,0.34,-0.03
2022-12-08 5:54:46.8810,0.34,0.39,-0.29,-0.08,0.29,-0.07
2022-12-08 5:54:46.8910,0.29,0.4,-0.31,0.11,0.21,-0.09
2022-12-08 5:54:46.9010,0.26,0.43,-0.41,0.29,0.13,-0.1
2022-12-08 5:54:46.9110,0.3,0.45,-0.75,0.39,0.09,-0.11
2022-12-08 5:54:46.9210,0.38,0.47,-1.21,0.4,0.05,-0.14
2022-12-08 5:54:46.9310,0.45,0.52,-1.5,0.34,0.04,-0.19
2022-12-08 5:54:46.9410,0.43,0.59,-1.77,0.22,0.06,-0.23
2022-12-08 5:54:46.9510,0.37,0.62,-1.99,0.11,0.1,-0.26
2022-12-08 5:54:46.9610,0.26,0.69,-2.07,0.02,0.14,-0.26
2022-12-08 5:54:46.9710,0.17,0.76,-2.09,-0.03,0.16,-0.24
2022-12-08 5:54:46.9810,0.09,0.74,-1.91,-0.01,0.13,-0.2
2022-12-08 5:54:46.9910,-0.01,0.74,-1.67,0.04,0.12,-0.16
2022-12-08 5:54:47.0010,0.01,0.68,-1.59,0.1,0.08,-0.12
2022-12-08 5:54:47.0100,0.09,0.61,-1.46,0.15,0.04,-0.07
2022-12-08 5:54:47.0210,0.13,0.66,-1.35,0.17,0.03,-0.03
2022-12-08 5:54:47.0300,0.19,0.74,-1.34,0.18,0.04,0.01
2022-12-08 5:54:47.0400,0.31,0.71,-1.25,0.19,0.09,0.04
2022-12-08 5:54:47.0500,0.38,0.72,-1.18,0.21,0.15,0.07
2022-12-08 5:54:47.0600,0.33,0.75,-1.16,0.25,0.15,0.1
2022-12-08 5:54:47.0700,0.25,0.75,-0.97,0.31,0.12,0.13
2022-12-08 5:54:47.0800,0.12,0.71,-0.76,0.4,0.04,0.16
2022-12-08 5:54:47.0900,0.11,0.6,-0.59,0.47,-0.07,0.2
2022-12-08 5:54:47.1000,0.18,0.53,-0.4,0.52,-0.14,0.21
2022-12-08 5:54:47.1100,0.27,0.511963783800602,-0.48,0.51,-0.19,0.21
2022-12-08 5:54:47.1200,0.34,0.51,-0.48,0.44,-0.21,0.18
2022-12-08 5:54:47.1300,0.4,0.46,-0.43,0.31,-0.2,0.12
2022-12-08 5:54:47.1400,0.48,0.47,-0.04497736752033234,0.14,-0.17,0.06
2022-12-08 5:54:47.1500,0.6,0.3138704963028431,0.37,-0.01,-0.11,-0.02
2022-12-08 5:54:47.1600,0.69,0.31,0.37,-0.08,-0.08,-0.11
2022-12-08 5:54:47.1700,0.59,0.1,1.03,-0.05,-0.09,-0.15
2022-12-08 5:54:47.1800,0.24,-0.18,1.91,0.06,-0.06,-0.15
2022-12-08 5:54:47.1900,0.24,-0.18,1.91,0.19,0.05,-0.07
2022-12-08 5:54:47.2000,0.13,-0.21,1.77,0.3,0.2,0.07
2022-12-08 5:54:47.2100,0.0,-0.07,1.0420059889554978,0.32,0.27,0.2
2022-12-08 5:54:47.2200,-0.09,-0.05,1.04,0.23,0.26,0.26
2022-12-08 5:54:47.2290,-0.07,-0.15,0.84,0.03,0.18,0.26
2022-12-08 5:54:47.2390,0.03,-0.18,0.7,-0.27,0.0,0.17
2022-12-08 5:54:47.2490,0.06,-0.16,1.09,-0.55,-0.21,0.01
2022-12-08 5:54:47.2590,-0.04,-0.14,1.86,-0.67,-0.33,-0.12
2022-12-08 5:54:47.2690,-0.07,-0.24,2.28,-0.6,-0.31,-0.19
2022-12-08 5:54:47.2790,-0.15,-0.4,2.35,-0.36,-0.21,-0.16
2022-12-08 5:54:47.2890,-0.28,-0.5,2.46,-0.05,-0.07,-0.04
2022-12-08 5:54:47.2990,-0.38,-0.54,2.27,0.25,0.04,0.18
2022-12-08 5:54:47.3090,-0.72,-0.41,1.49,0.43,0.07,0.4
2022-12-08 5:54:47.3190,-0.72,-0.41,1.49,0.48,0.03,0.58
2022-12-08 5:54:47.3290,-0.83,-0.32,1.17,0.45,0.02,0.66
2022-12-08 5:54:47.3390,-0.69,-0.29,0.67,0.3,-0.01,0.65
2022-12-08 5:54:47.3490,-0.49,-0.3,0.41,0.08,-0.09,0.55
2022-12-08 5:54:47.3590,-0.35,-0.19,0.56,-0.15,-0.15,0.38
2022-12-08 5:54:47.3690,-0.26,-0.06,0.72,-0.28,-0.21,0.19
2022-12-08 5:54:47.3790,-0.29,-0.05,0.97,-0.28,-0.23,0.04
2022-12-08 5:54:47.3890,-0.36,-0.15,1.15,-0.18,-0.23,-0.04
2022-12-08 5:54:47.3990,-0.45,-0.43,1.2,-0.05,-0.28,-0.06
2022-12-08 5:54:47.4100,-0.45,-0.43,1.2,0.06,-0.33,-0.05
2022-12-08 5:54:47.4190,-0.53,-0.47,1.07,0.12,-0.34,-0.01
2022-12-08 5:54:47.4280,-0.51,-0.51,0.73,0.16,-0.3,0.03
2022-12-08 5:54:47.4380,-0.37,-0.51,0.4,0.18,-0.19,0.05
2022-12-08 5:54:47.4480,-0.29,-0.5,0.0,0.17,-0.09,0.06
2022-12-08 5:54:47.4580,-0.27,-0.49,-0.35,0.15,-0.0,0.06
2022-12-08 5:54:47.4680,-0.28,-0.45,-0.75,0.11,0.07,0.04
2022-12-08 5:54:47.4780,-0.26,-0.37,-1.15,0.07,0.12,0.03
2022-12-08 5:54:47.4880,-0.25,-0.27,-1.48,0.01,0.15,0.02
2022-12-08 5:54:47.4980,-0.36,-0.06,-1.98,-0.02,0.17,0.0
2022-12-08 5:54:47.5080,-0.36,-0.06,-1.98,-0.03,0.19,-0.01
2022-12-08 5:54:47.5180,-0.39,-0.02,-2.23,-0.02,0.18,-0.02
2022-12-08 5:54:47.5280,-0.39,0.02,-2.38,-0.02,0.15,-0.03
2022-12-08 5:54:47.5380,-0.39,0.0,-2.45,-0.02,0.07,-0.05
2022-12-08 5:54:47.5480,-0.35,-0.01,-2.36,-0.03,0.0,-0.05
2022-12-08 5:54:47.5580,-0.27,0.03,-2.3,-0.02,-0.03,-0.06
2022-12-08 5:54:47.5680,-0.23,0.05,-2.28,-0.0,-0.02,-0.07
2022-12-08 5:54:47.5780,-0.26,0.07,-2.18,0.02,0.01,-0.09
2022-12-08 5:54:47.5880,-0.29,0.05,-2.15,0.03,0.03,-0.08
2022-12-08 5:54:47.5980,-0.33,0.07,-1.98,0.04,0.01,-0.06
2022-12-08 5:54:47.6080,-0.48,0.11,-1.66,0.07,0.01,-0.03
2022-12-08 5:54:47.6180,-0.53,0.08,-1.49,0.11,0.01,0.02
2022-12-08 5:54:47.6280,-0.43,-0.04,-1.34,0.16,0.01,0.06
2022-12-08 5:54:47.6380,-0.31,-0.05,-1.15,0.21,0.03,0.11
2022-12-08 5:54:47.6470,-0.19,0.01,-1.01,0.25,0.07,0.12
2022-12-08 5:54:47.6570,-0.1,0.04,-0.9,0.29,0.1,0.1
2022-12-08 5:54:47.6670,-0.08,0.07,-0.86,0.32,0.1,0.08
2022-12-08 5:54:47.6770,-0.06,0.08,-0.76,0.3,0.05,0.04
2022-12-08 5:54:47.6870,-0.06,0.06,-0.6,0.29,-0.0,0.01
2022-12-08 5:54:47.7020,-0.21,0.04,-0.14,0.31,-0.04,-0.02
2022-12-08 5:54:47.7120,-0.28,-0.11,0.12,0.35,-0.08,-0.03
2022-12-08 5:54:47.7220,-0.31,-0.18,0.26,0.39,-0.1,-0.03
2022-12-08 5:54:47.7320,-0.28,-0.21,0.4,0.39,-0.12,-0.0
2022-12-08 5:54:47.7370,-0.28,-0.21,0.4,0.35,-0.11,0.02
2022-12-08 5:54:47.7470,-0.09,-0.27,0.47,0.27,-0.08,0.02
2022-12-08 5:54:47.7570,0.13,-0.39,0.54,0.16,-0.07,-0.04
2022-12-08 5:54:47.7670,0.5394974086806178,-0.55,1.07,0.04,-0.06,-0.13
2022-12-08 5:54:47.7770,0.53,-0.55,1.07,-0.04,-0.04,-0.22
2022-12-08 5:54:47.7870,0.55,-0.52,1.29,-0.04,-0.04,-0.28
2022-12-08 5:54:47.7960,0.44,-0.49,1.61,0.03,-0.03,-0.31
2022-12-08 5:54:47.8070,0.29,-0.5,1.77,0.16,0.01,-0.29
2022-12-08 5:54:47.8170,0.12,-0.51,1.66,0.29,0.12,-0.19
2022-12-08 5:54:47.8270,-0.09,-0.22,1.14,0.35,0.17,-0.08
2022-12-08 5:54:47.8360,-0.19,-0.45,0.21,0.28,0.12,-0.03
2022-12-08 5:54:47.8490,-0.19,-0.45,0.21,0.07,0.04,-0.02
2022-12-08 5:54:47.8560,-0.09,-0.38,-0.08,-0.24,-0.03,-0.1
2022-12-08 5:54:47.8660,0.16,-0.36,-0.12,-0.58,-0.09,-0.25
2022-12-08 5:54:47.8760,0.34,-0.42,0.31,-0.81,-0.09,-0.38
2022-12-08 5:54:47.8860,0.28,-0.32,0.85,-0.84,0.01,-0.44
2022-12-08 5:54:47.8960,-0.17,-0.19,1.18,-0.66,0.12,-0.42
2022-12-08 5:54:47.9060,-0.17,-0.19,1.18,-0.36,0.18,-0.31
2022-12-08 5:54:47.9160,-0.47,-0.23,1.12,-0.12,0.13,-0.17
2022-12-08 5:54:47.9260,-0.74,-0.13,0.84,0.0,-0.01,-0.05
2022-12-08 5:54:47.9360,-0.87,0.05,0.59,-0.01,-0.2,0.02
2022-12-08 5:54:47.9460,-0.76,0.07,0.33,-0.16,-0.38,0.02
2022-12-08 5:54:47.9560,-0.4,-0.06,0.22,-0.37,-0.51,-0.03
2022-12-08 5:54:47.9660,-0.01,-0.02,0.41,-0.56,-0.53,-0.11
2022-12-08 5:54:47.9760,0.28,0.05,0.68,-0.64,-0.44,-0.21
2022-12-08 5:54:47.9860,0.43,-0.01,0.87,-0.6,-0.28,-0.28
2022-12-08 5:54:47.9960,0.42,-0.14,0.96,-0.46,-0.16,-0.3
2022-12-08 5:54:48.0060,0.27,-0.19,1.11,-0.29,-0.07,-0.25
2022-12-08 5:54:48.0160,0.1,-0.18,0.96,-0.16,-0.01,-0.16
2022-12-08 5:54:48.0260,-0.02,-0.12,0.56,-0.09,0.04,-0.05
2022-12-08 5:54:48.0360,-0.06,0.0,0.14,-0.09,0.07,0.04
2022-12-08 5:54:48.0460,-0.12,0.13,-0.31,-0.13,0.09,0.09
2022-12-08 5:54:48.0560,-0.04,0.27,-0.65,-0.19,0.13,0.12
2022-12-08 5:54:48.0660,0.13,0.57,-1.03,-0.25,0.17,0.1
2022-12-08 5:54:48.0750,0.13,0.57,-1.03,-0.26,0.17,0.05
2022-12-08 5:54:48.0850,0.08,0.65,-1.05,-0.23,0.14,-0.04
2022-12-08 5:54:48.0950,-0.05,0.64,-0.96,-0.15,0.07,-0.13
2022-12-08 5:54:48.1050,-0.2,0.63,-0.85,-0.03,-0.01,-0.21
2022-12-08 5:54:48.1150,-0.25,0.39,-0.72,0.1,-0.09,-0.25
2022-12-08 5:54:48.1250,-0.2,0.25,-0.78,0.21,-0.15,-0.25
2022-12-08 5:54:48.1350,-0.2,0.25,-0.78,0.27,-0.15,-0.23
2022-12-08 5:54:48.1450,-0.15,0.19,-1.04,0.26,-0.11,-0.18
2022-12-08 5:54:48.1550,-0.15,0.19,-1.04,0.19,-0.01,-0.13
2022-12-08 5:54:48.1650,-0.13,0.22,-1.11,0.12,0.1,-0.06
2022-12-08 5:54:48.1750,-0.06,0.27,-1.08,0.09,0.22,0.01
2022-12-08 5:54:48.1850,0.0,0.34,-0.95,0.1,0.3,0.06
2022-12-08 5:54:48.1950,0.0,0.34,-0.95,0.16,0.33,0.09
2022-12-08 5:54:48.2050,-0.02,0.38,-0.87,0.25,0.31,0.11
2022-12-08 5:54:48.2150,-0.01,0.44,-0.9,0.35,0.26,0.11
2022-12-08 5:54:48.2250,0.01,0.45,-1.0,0.43,0.17,0.1
2022-12-08 5:54:48.2350,-0.02,0.47,-1.06,0.48,0.09,0.07
2022-12-08 5:54:48.2450,-0.02,0.45,-1.18,0.49,0.01,0.03
2022-12-08 5:54:48.2540,0.0,0.39,-1.25,0.48,-0.04,0.02
2022-12-08 5:54:48.2640,-0.01,0.4,-1.25,0.47,-0.07,0.02
2022-12-08 5:54:48.2750,-0.01,0.36,-1.18,0.45,-0.08,0.03
2022-12-08 5:54:48.2840,-0.01,0.26,-1.1,0.42,-0.08,0.04
2022-12-08 5:54:48.2940,-0.01,0.24,-1.0,0.37,-0.06,0.04
2022-12-08 5:54:48.3040,-0.04,0.21,-0.84,0.3,-0.06,0.02
2022-12-08 5:54:48.3140,-0.02,0.06,-0.57,0.24,-0.04,0.02
2022-12-08 5:54:48.3240,0.05,0.03,-0.25,0.19,0.01,0.02
2022-12-08 5:54:48.3340,0.12,0.02,-0.08,0.14,0.05,0.0
2022-12-08 5:54:48.3440,0.13,-0.12,0.16,0.1,0.07,-0.02
2022-12-08 5:54:48.3540,0.06,-0.18,0.42,0.08,0.05,-0.05
2022-12-08 5:54:48.3640,0.02,-0.26,0.66,0.06,0.04,-0.06
2022-12-08 5:54:48.3740,-0.02,-0.35,0.84,0.06,0.04,-0.05
2022-12-08 5:54:48.3840,-0.05,-0.29,0.9,0.05,0.07,-0.02
2022-12-08 5:54:48.3940,-0.1,-0.24,0.93,0.06,0.11,0.04
2022-12-08 5:54:48.4040,-0.3,-0.16,0.99,0.11,0.16,0.12
2022-12-08 5:54:48.4140,-0.63,0.02,0.84,0.17,0.21,0.24
2022-12-08 5:54:48.4240,-0.93,0.21,0.51,0.18,0.19,0.33
2022-12-08 5:54:48.4340,-1.12,0.16,0.28,0.11,0.1,0.39
2022-12-08 5:54:48.4440,-1.07,0.14,0.28,-0.05,0.01,0.42
2022-12-08 5:54:48.4530,-0.87,0.18,0.32,-0.25,-0.07,0.38
2022-12-08 5:54:48.4630,-0.52,0.12,0.63,-0.46,-0.11,0.28
2022-12-08 5:54:48.4730,-0.32,0.01,1.06,-0.59,-0.12,0.15
2022-12-08 5:54:48.4830,-0.29,-0.06,1.53,-0.59,-0.08,0.06
2022-12-08 5:54:48.4930,-0.36,-0.15,1.92,-0.49,0.01,0.03
2022-12-08 5:54:48.5030,-0.5,-0.28,1.98,-0.33,0.07,0.07
2022-12-08 5:54:48.5130,-0.74,-0.41,1.99,-0.19,0.07,0.18
2022-12-08 5:54:48.5230,-0.99,-0.39,1.97,-0.06,0.03,0.32
2022-12-08 5:54:48.5330,-1.15,-0.36,1.81,0.03,-0.06,0.45
2022-12-08 5:54:48.5430,-1.19,-0.42,1.56,0.07,-0.17,0.54
2022-12-08 5:54:48.5530,-1.12,-0.43,1.38,0.03,-0.29,0.57
2022-12-08 5:54:48.5630,-0.91,-0.41,1.35,-0.05,-0.38,0.54
2022-12-08 5:54:48.5730,-0.57,-0.33,1.41,-0.1,-0.4,0.45
2022-12-08 5:54:48.5830,-0.27,-0.26,1.48,-0.11,-0.34,0.35
2022-12-08 5:54:48.5930,-0.05,-0.28,1.4,-0.06,-0.25,0.26
2022-12-08 5:54:48.6030,0.03,-0.3,1.26,0.0,-0.19,0.21
2022-12-08 5:54:48.6130,-0.06,-0.2685838110744953,0.87,0.05,-0.17,0.2
2022-12-08 5:54:48.6230,-0.18,-0.27,0.87,0.06,-0.13,0.21
2022-12-08 5:54:48.6330,-0.16,-0.28,0.47,0.02,-0.09,0.21
2022-12-08 5:54:48.6430,-0.1,-0.32,0.1,-0.04,-0.05,0.2
2022-12-08 5:54:48.6530,-0.04,-0.33,-0.14,-0.11,-0.01,0.18
2022-12-08 5:54:48.6630,0.0,-0.36,-0.28,-0.14,-0.01,0.12
2022-12-08 5:54:48.6720,-0.05,-0.41,-0.23,-0.11,0.0,0.06
2022-12-08 5:54:48.6830,-0.12,-0.42,-0.28,-0.04,0.04,0.01
2022-12-08 5:54:48.6930,-0.13,-0.44,-0.48,0.06,0.07,-0.02
2022-12-08 5:54:48.7020,-0.15,-0.47,-0.68,0.13,0.07,-0.03
2022-12-08 5:54:48.7120,-0.23,-0.42,-0.89,0.18,0.09,-0.02
2022-12-08 5:54:48.7220,-0.32,-0.37,-1.19,0.18,0.15,-0.01
2022-12-08 5:54:48.7320,-0.39,-0.33,-1.65,0.14,0.21,0.01
2022-12-08 5:54:48.7420,-0.41,-0.27,-1.97,0.08,0.25,0.04
2022-12-08 5:54:48.7520,-0.4,-0.21,-2.08,0.03,0.29,0.07
2022-12-08 5:54:48.7620,-0.44,-0.16,-2.26,-0.0,0.28,0.07
2022-12-08 5:54:48.7720,-0.48,-0.17,-2.26,-0.01,0.22,0.06
2022-12-08 5:54:48.7820,-0.52,-0.15,-2.13,0.02,0.13,0.05
2022-12-08 5:54:48.7920,-0.54,-0.14,-1.99,0.07,0.02,0.05
2022-12-08 5:54:48.8020,-0.5,-0.15,-1.8,0.16,-0.03,0.06
2022-12-08 5:54:48.8120,-0.3,-0.06,-1.82,0.23,-0.02,0.07
2022-12-08 5:54:48.8220,-0.3,-0.06,-1.82,0.25,0.02,0.08
2022-12-08 5:54:48.8320,-0.14,-0.04,-1.84,0.24,0.06,0.09
2022-12-08 5:54:48.8420,-0.06,0.03,-1.83,0.18,0.08,0.08
2022-12-08 5:54:48.8520,-0.03,0.1,-1.8,0.12,0.1,0.07
2022-12-08 5:54:48.8620,-0.01,0.1,-1.72,0.08,0.11,0.04
2022-12-08 5:54:48.8710,0.0,0.1,-1.49,0.07,0.1,0.02
2022-12-08 5:54:48.8810,-0.02,0.1,-1.12,0.1,0.04,0.02
2022-12-08 5:54:48.8920,-0.13,0.06,-0.69,0.17,-0.02,0.03
2022-12-08 5:54:48.9020,-0.22,0.02,-0.35,0.23,-0.06,0.04
2022-12-08 5:54:48.9120,-0.2,-0.08,-0.18,0.27,-0.07,0.06
2022-12-08 5:54:48.9210,-0.16,-0.12,-0.08,0.28,-0.07,0.06
2022-12-08 5:54:48.9310,-0.12,-0.1,0.07,0.27,-0.03,0.06
2022-12-08 5:54:48.9410,-0.06,-0.13,0.22,0.23,-0.0,0.04
2022-12-08 5:54:48.9510,0.08,-0.18,0.3,0.17,0.02,0.01
2022-12-08 5:54:48.9610,0.28,-0.18,0.43,0.09,0.02,-0.03
2022-12-08 5:54:48.9710,0.46,-0.15,0.62,0.02,-0.01,-0.1
2022-12-08 5:54:48.9810,0.49,-0.18,0.83,-0.0,-0.06,-0.16
2022-12-08 5:54:48.9910,0.41,-0.23,1.02,0.03,-0.12,-0.18
2022-12-08 5:54:49.0010,0.26,-0.2,1.16,0.1,-0.14,-0.15
2022-12-08 5:54:49.0110,0.1,-0.06,1.03,0.14,-0.16,-0.13
2022-12-08 5:54:49.0210,-0.02,-0.32,0.76,0.12,-0.19,-0.13
2022-12-08 5:54:49.0310,-0.02,-0.32,0.76,0.04,-0.2,-0.11
2022-12-08 5:54:49.0410,0.02,-0.27,0.64,-0.11,-0.18,-0.09
2022-12-08 5:54:49.0510,0.16,-0.31,0.57,-0.29,-0.17,-0.11
2022-12-08 5:54:49.0610,0.34,-0.39,0.68,-0.46,-0.17,-0.14
2022-12-08 5:54:49.0710,0.4,-0.41,1.01,-0.54,-0.13,-0.18
2022-12-08 5:54:49.0810,0.43,-0.37,1.22,-0.5,-0.04,-0.2
2022-12-08 5:54:49.0910,0.39,-0.33,1.25,-0.35,0.07,-0.17
2022-12-08 5:54:49.1000,0.22,-0.21,1.23,-0.16,0.15,-0.1
2022-12-08 5:54:49.1110,0.01,-0.04,1.09,-0.01,0.18,-0.02
2022-12-08 5:54:49.1210,-0.12,0.17,0.47,0.06,0.19,0.03
2022-12-08 5:54:49.1310,-0.12,0.17,0.47,0.02,0.18,0.05
2022-12-08 5:54:49.1400,0.06,0.22,0.18,-0.15,0.11,-0.01
2022-12-08 5:54:49.1500,0.24,0.13,0.12,-0.4,-0.04,-0.13
2022-12-08 5:54:49.1600,0.28,0.11,0.45,-0.63,-0.21,-0.32
2022-12-08 5:54:49.1700,0.18,0.09,1.05,-0.73,-0.32,-0.49
2022-12-08 5:54:49.1800,0.17,-0.17,1.55,-0.67,-0.34,-0.6
2022-12-08 5:54:49.1900,0.25,-0.6250229144096375,2.14,-0.49,-0.28,-0.63
2022-12-08 5:54:49.2000,0.24,-0.63,2.14,-0.27,-0.16,-0.55
2022-12-08 5:54:49.2100,0.18,-0.72,2.16,-0.08,0.03,-0.39
2022-12-08 5:54:49.2200,0.13,-0.71,1.81,0.01,0.21,-0.19
2022-12-08 5:54:49.2300,0.06,-0.61,1.23,-0.02,0.34,-0.01
2022-12-08 5:54:49.2400,0.0,-0.47,0.68,-0.1,0.42,0.12
2022-12-08 5:54:49.2500,0.01,-0.25,0.28,-0.17,0.47,0.19
2022-12-08 5:54:49.2600,0.1,-0.08,-0.15,-0.2,0.49,0.19
2022-12-08 5:54:49.2700,0.2,0.08,-0.42,-0.17,0.47,0.15
2022-12-08 5:54:49.2800,0.25,0.23,-0.61,-0.09,0.42,0.08
2022-12-08 5:54:49.2900,0.24,0.37,-0.83,-0.01,0.34,-0.0
2022-12-08 5:54:49.3000,0.2,0.45,-1.06,0.05,0.25,-0.08
2022-12-08 5:54:49.3100,0.19,0.45,-1.27,0.08,0.14,-0.13
2022-12-08 5:54:49.3200,0.14,0.55,-1.39,0.08,0.07,-0.16
2022-12-08 5:54:49.3300,0.11,0.6,-1.56,0.06,0.02,-0.16
2022-12-08 5:54:49.3400,0.16,0.57,-1.69,0.03,0.02,-0.14
2022-12-08 5:54:49.3500,0.17,0.58,-1.75,-0.02,0.03,-0.12
2022-12-08 5:54:49.3590,0.02,0.57,-1.61,-0.04,0.03,-0.09
2022-12-08 5:54:49.3690,-0.15,0.55,-1.18,-0.0,0.08,-0.04
2022-12-08 5:54:49.3790,-0.03,0.46,-1.11,0.07,0.14,0.02
2022-12-08 5:54:49.3890,-0.03,0.46,-1.11,0.15,0.18,0.07
2022-12-08 5:54:49.3990,0.17,0.4,-1.05,0.19,0.2,0.1
2022-12-08 5:54:49.4090,0.37,0.39,-1.0,0.23,0.19,0.09
2022-12-08 5:54:49.4190,0.5,0.38,-0.92,0.25,0.17,0.07
2022-12-08 5:54:49.4290,0.5,0.38,-0.92,0.26,0.13,0.02
2022-12-08 5:54:49.4390,0.49,0.35,-0.92,0.25,0.08,-0.03
2022-12-08 5:54:49.4490,0.36,0.34,-0.86,0.25,0.04,-0.06
2022-12-08 5:54:49.4590,0.29,0.35,-0.84,0.26,0.05,-0.06
2022-12-08 5:54:49.4690,0.27,0.38,-0.91,0.27,0.07,-0.03
2022-12-08 5:54:49.4790,0.2,0.4,-0.89,0.27,0.11,0.02
2022-12-08 5:54:49.4890,0.13,0.48,-0.81,0.28,0.16,0.1
2022-12-08 5:54:49.4990,0.11,0.57,-0.87,0.27,0.19,0.16
2022-12-08 5:54:49.5090,0.1,0.64,-0.92,0.24,0.18,0.21
2022-12-08 5:54:49.5180,0.05,0.74,-0.86,0.21,0.12,0.24
2022-12-08 5:54:49.5280,0.03,0.84,-0.81,0.18,0.05,0.22
2022-12-08 5:54:49.5390,0.1,0.82,-0.82,0.12,-0.07,0.17
2022-12-08 5:54:49.5480,0.14,0.75,-0.64,0.08,-0.24,0.09
2022-12-08 5:54:49.5580,0.12,0.73,-0.21,0.06,-0.34,-0.0
2022-12-08 5:54:49.5680,0.27,0.61,0.05,0.04,-0.41,-0.12
2022-12-08 5:54:49.5780,0.45,0.35,0.33,0.01,-0.49,-0.23
2022-12-08 5:54:49.5880,0.31,0.19,0.96,-0.01,-0.55,-0.32
2022-12-08 5:54:49.5980,-0.05,0.13,1.59,0.05,-0.56,-0.33
2022-12-08 5:54:49.6080,-0.2,-0.04,2.01,0.17,-0.45,-0.25
2022-12-08 5:54:49.6180,-0.14,-0.15,2.1,0.31,-0.24,-0.06
2022-12-08 5:54:49.6280,-0.14,-0.02,1.99,0.37,0.08,0.19
2022-12-08 5:54:49.6380,-0.3,0.29,1.59,0.3,0.37,0.4
2022-12-08 5:54:49.6480,-0.57,0.39,1.14,0.11,0.55,0.51
2022-12-08 5:54:49.6580,-0.72,0.32,0.88,-0.17,0.62,0.54
2022-12-08 5:54:49.6680,-0.6,0.32,0.83,-0.49,0.57,0.51
2022-12-08 5:54:49.6780,-0.43,0.46,1.1,-0.76,0.43,0.38
2022-12-08 5:54:49.6880,-0.37,0.49,1.76,-0.85,0.24,0.18
2022-12-08 5:54:49.6980,-0.38,0.21,2.44,-0.69,0.11,0.0
2022-12-08 5:54:49.7080,-0.44,-0.04,2.74,-0.38,0.01,-0.08
2022-12-08 5:54:49.7180,-0.58,-0.13,2.86,-0.0,-0.11,-0.05
2022-12-08 5:54:49.7280,-0.71,-0.22,2.93,0.33,-0.18,0.07
2022-12-08 5:54:49.7380,-0.78,-0.22,2.39,0.55,-0.2,0.24
2022-12-08 5:54:49.7470,-0.76,-0.2,1.6,0.59,-0.21,0.41
2022-12-08 5:54:49.7580,-0.66,-0.13,0.93,0.5,-0.18,0.52
2022-12-08 5:54:49.7670,-0.56,-0.02,0.31,0.32,-0.12,0.55
2022-12-08 5:54:49.7770,-0.36,-0.01,-0.19,0.1,-0.04,0.5
2022-12-08 5:54:49.7870,-0.06,-0.05,-0.47,-0.11,0.0,0.39
2022-12-08 5:54:49.7970,0.19,-0.11,-0.4,-0.24,0.0,0.24
2022-12-08 5:54:49.8070,0.31,-0.18,-0.21,-0.28,-0.04,0.09
2022-12-08 5:54:49.8170,0.28,-0.32,-0.04,-0.22,-0.13,-0.04
2022-12-08 5:54:49.8270,0.14,-0.45,0.16,-0.12,-0.23,-0.12
2022-12-08 5:54:49.8370,0.06,-0.53,0.27,0.01,-0.32,-0.15
2022-12-08 5:54:49.8470,0.0,-0.52,0.19,0.11,-0.36,-0.12
2022-12-08 5:54:49.8570,-0.06,-0.48,0.0,0.19,-0.33,-0.06
2022-12-08 5:54:49.8670,-0.03,-0.44,-0.29,0.22,-0.22,0.01
2022-12-08 5:54:49.8770,0.02,-0.43,-0.64,0.19,-0.08,0.05
2022-12-08 5:54:49.8870,0.06,-0.4,-0.88,0.12,0.06,0.07
2022-12-08 5:54:49.8970,0.06,-0.34,-1.09,0.04,0.2,0.05
2022-12-08 5:54:49.9070,0.02,-0.28,-1.33,-0.01,0.32,0.02
2022-12-08 5:54:49.9170,-0.0018063510954380037,-0.21,-1.63,-0.02,0.39,-0.01
2022-12-08 5:54:49.9270,-0.01,-0.21,-1.63,-0.0,0.39,-0.04
2022-12-08 5:54:49.9360,-0.12,-0.19,-1.73,0.03,0.34,-0.07
2022-12-08 5:54:49.9460,-0.25,-0.17,-1.83,0.07,0.23,-0.1
2022-12-08 5:54:49.9560,-0.38,-0.16,-1.9,0.11,0.09,-0.11
2022-12-08 5:54:49.9660,-0.47,-0.12,-1.92,0.16,-0.01,-0.1
2022-12-08 5:54:49.9760,-0.51,-0.05,-1.98,0.2,-0.09,-0.08
2022-12-08 5:54:49.9860,-0.43,0.0,-2.01,0.22,-0.12,-0.06
2022-12-08 5:54:49.9960,-0.32,0.01,-1.87,0.23,-0.09,-0.04
2022-12-08 5:54:50.0060,-0.22,0.05,-1.85,0.24,-0.02,-0.02
2022-12-08 5:54:50.0160,-0.11,0.1,-1.93,0.2,0.07,-0.04
2022-12-08 5:54:50.0260,-0.02,0.08,-1.93,0.13,0.14,-0.08
2022-12-08 5:54:50.0360,0.04,0.1,-1.89,0.03,0.18,-0.14
2022-12-08 5:54:50.0460,0.04,0.17,-1.79,-0.06,0.2,-0.2
2022-12-08 5:54:50.0560,0.06,0.14,-1.63,-0.11,0.13,-0.25
2022-12-08 5:54:50.0660,0.03,0.04,-1.17,-0.1,-0.02,-0.29
2022-12-08 5:54:50.0760,-0.12,0.02,-0.48,0.0,-0.17,-0.3
2022-12-08 5:54:50.0860,-0.34,-0.02,0.0,0.16,-0.3,-0.29
2022-12-08 5:54:50.0960,-0.45,-0.15,0.42,0.33,-0.36,-0.26
2022-12-08 5:54:50.1060,-0.47,-0.25,0.69,0.51,-0.31,-0.2
2022-12-08 5:54:50.1160,-0.35,-0.27,0.73,0.63,-0.15,-0.11
2022-12-08 5:54:50.1260,-0.14,-0.36,0.55,0.65,0.03,-0.03
2022-12-08 5:54:50.1360,-0.09,-0.33,0.52,0.55,0.15,0.02
2022-12-08 5:54:50.1450,-0.08,-0.24,0.5,0.39,0.25,0.02
2022-12-08 5:54:50.1560,-0.04,-0.21,0.44,0.22,0.31,-0.01
2022-12-08 5:54:50.1660,-0.02,-0.18,0.47,0.09,0.29,-0.08
2022-12-08 5:54:50.1750,-0.07,-0.21,0.69,0.03,0.2,-0.15
2022-12-08 5:54:50.1850,-0.24,-0.28,1.1,0.08,0.07,-0.21
2022-12-08 5:54:50.1950,-0.26,-0.33,1.38,0.19,-0.07,-0.24
2022-12-08 5:54:50.2060,-0.24,-0.39,1.6,0.33,-0.18,-0.23
2022-12-08 5:54:50.2150,-0.44,-0.17,1.35,0.46,-0.2,-0.18
2022-12-08 5:54:50.2250,-0.44,-0.17,1.35,0.54,-0.17,-0.13
2022-12-08 5:54:50.2350,-0.52,-0.04,0.92,0.51,-0.16,-0.08
2022-12-08 5:54:50.2450,-0.51,-0.01,0.57,0.4,-0.14,-0.05
2022-12-08 5:54:50.2550,-0.4,0.13,0.2,0.2,-0.09,-0.05
2022-12-08 5:54:50.2650,-0.21,0.2,-0.17,-0.07,-0.05,-0.12
2022-12-08 5:54:50.2750,0.08,0.1,-0.27,-0.36,-0.03,-0.24
2022-12-08 5:54:50.2850,0.27,0.03,-0.03,-0.59,0.0,-0.39
2022-12-08 5:54:50.2950,0.32,0.04,0.39,-0.68,0.09,-0.54
2022-12-08 5:54:50.3050,0.33,-0.08,0.62,-0.65,0.18,-0.66
2022-12-08 5:54:50.3150,0.15,-0.22,0.74,-0.53,0.15,-0.69
2022-12-08 5:54:50.3250,-0.18,-0.18,1.13,-0.37,0.1,-0.66
2022-12-08 5:54:50.3350,-0.42,-0.2,1.15,-0.23,0.03,-0.59
2022-12-08 5:54:50.3450,-0.5,-0.29,0.95,-0.17,-0.04,-0.49
2022-12-08 5:54:50.3550,-0.53,-0.27,0.87,-0.18,-0.09,-0.4
2022-12-08 5:54:50.3650,-0.49,-0.25,0.83,-0.23,-0.13,-0.33
2022-12-08 5:54:50.3750,-0.46,-0.29,0.84,-0.29,-0.13,-0.26
2022-12-08 5:54:50.3840,-0.38,-0.25,0.84,-0.31,-0.1,-0.2
2022-12-08 5:54:50.3940,-0.17,-0.26,0.87,-0.3,-0.05,-0.16
2022-12-08 5:54:50.4040,0.08,-0.29,0.9,-0.24,0.01,-0.13
2022-12-08 5:54:50.4140,0.26,-0.29,0.77,-0.19,0.04,-0.12
2022-12-08 5:54:50.4240,0.32,-0.26,0.65,-0.12,0.04,-0.11
2022-12-08 5:54:50.4340,0.29,-0.18,0.47,-0.05,0.04,-0.1
2022-12-08 5:54:50.4440,0.27,-0.11,0.13,0.01,0.04,-0.07
2022-12-08 5:54:50.4540,0.27,-0.06,-0.23,0.06,0.05,-0.03
2022-12-08 5:54:50.4640,0.2,0.14381051480770113,-0.78,0.11,0.06,0.01
2022-12-08 5:54:50.4740,0.1,0.14,-0.78,0.17,0.08,0.06
2022-12-08 5:54:50.4840,0.09,0.16,-1.09,0.22,0.1,0.1
2022-12-08 5:54:50.4940,0.1,0.21,-1.37,0.23,0.12,0.13
2022-12-08 5:54:50.5040,0.13,0.29,-1.61,0.22,0.13,0.12
2022-12-08 5:54:50.5140,0.26,0.36,-1.76,0.18,0.16,0.09
2022-12-08 5:54:50.5240,0.4,0.37,-1.94,0.14,0.17,0.04
2022-12-08 5:54:50.5340,0.5,0.34,-2.03,0.11,0.15,-0.03
2022-12-08 5:54:50.5440,0.47,0.29,-2.07,0.08,0.09,-0.09
2022-12-08 5:54:50.5540,0.37,0.29,-2.01,0.08,0.04,-0.14
2022-12-08 5:54:50.5640,0.26,0.26,-2.02,0.09,-0.0,-0.15
2022-12-08 5:54:50.5740,0.14,0.25,-2.03,0.1,-0.05,-0.13
2022-12-08 5:54:50.5830,0.03,0.23,-1.87,0.09,-0.06,-0.09
2022-12-08 5:54:50.5940,-0.04,0.21,-1.8,0.04,-0.02,-0.04
2022-12-08 5:54:50.6040,0.01,0.19,-1.88,-0.04,0.06,-0.0
2022-12-08 5:54:50.6130,0.08,0.22,-1.89,-0.13,0.12,0.01
2022-12-08 5:54:50.6230,0.14,0.25,-1.7,-0.21,0.15,0.0
2022-12-08 5:54:50.6330,0.21,0.29,-1.44,-0.24,0.15,-0.03
2022-12-08 5:54:50.6430,0.28,0.31,-1.21,-0.24,0.1,-0.07
2022-12-08 5:54:50.6530,0.34,0.31,-1.0,-0.2,0.01,-0.11
2022-12-08 5:54:50.6630,0.37,0.34,-0.68,-0.12,-0.07,-0.16
2022-12-08 5:54:50.6730,0.35,0.36,-0.54,-0.02,-0.09,-0.19
2022-12-08 5:54:50.6830,0.31,0.29,-0.6,0.06,-0.11,-0.2
2022-12-08 5:54:50.6930,0.23,0.24,-0.57,0.09,-0.12,-0.18
2022-12-08 5:54:50.7030,0.08,0.21,-0.44,0.06,-0.12,-0.14
2022-12-08 5:54:50.7130,-0.04,0.16,-0.3,-0.01,-0.09,-0.07
2022-12-08 5:54:50.7230,-0.07,0.17,-0.23,-0.09,-0.01,0.01
2022-12-08 5:54:50.7330,-0.01,0.11,-0.16,-0.19,0.07,0.07
2022-12-08 5:54:50.7430,0.08,0.04,-0.01,-0.29,0.15,0.1
2022-12-08 5:54:50.7530,0.18,0.01,0.24,-0.37,0.19,0.08
2022-12-08 5:54:50.7630,0.29,-0.04,0.6,-0.42,0.19,0.02
2022-12-08 5:54:50.7730,0.23,-0.03,1.1,-0.36,0.15,-0.03
2022-12-08 5:54:50.7820,0.11,-0.04,1.55,-0.24,0.11,-0.05
2022-12-08 5:54:50.7930,0.02,-0.15,1.762335594892502,-0.1,0.08,-0.02
2022-12-08 5:54:50.8030,-0.07,-0.18,1.76,0.02,0.13,0.06
2022-12-08 5:54:50.8120,-0.2,-0.01,1.54,0.09,0.29,0.2
2022-12-08 5:54:50.8220,-0.36,0.33,1.08,0.1,0.44,0.33
2022-12-08 5:54:50.8320,-0.56,0.59,0.71,0.05,0.48,0.44
2022-12-08 5:54:50.8420,-0.69,0.64,0.68,-0.08,0.42,0.51
2022-12-08 5:54:50.8520,-0.68,0.57,0.63,-0.27,0.29,0.52
2022-12-08 5:54:50.8620,-0.51,0.49,0.64,-0.5,0.08,0.45
2022-12-08 5:54:50.8720,-0.28,0.45,1.1,-0.67,-0.14,0.32
2022-12-08 5:54:50.8820,-0.19,0.4,1.73,-0.69,-0.26,0.16
2022-12-08 5:54:50.8920,-0.16,0.28,2.05,-0.56,-0.29,0.04
2022-12-08 5:54:50.9020,-0.16,0.1,2.07,-0.34,-0.3,-0.01
2022-12-08 5:54:50.9120,-0.19,-0.03,2.17,-0.08,-0.31,0.03
2022-12-08 5:54:50.9220,-0.24,-0.07,2.11,0.13,-0.27,0.12
2022-12-08 5:54:50.9320,-0.3,-0.15,1.63,0.2,-0.28,0.21
2022-12-08 5:54:50.9420,-0.42,-0.26,1.38,0.14,-0.3,0.27
2022-12-08 5:54:50.9520,-0.45,-0.13,1.34,0.01,-0.27,0.3
2022-12-08 5:54:50.9620,-0.23,-0.18,1.2,-0.14,-0.2,0.29
2022-12-08 5:54:50.9720,0.06,-0.32,1.04,-0.26,-0.13,0.25
2022-12-08 5:54:50.9820,0.27,-0.34,1.05,-0.32,-0.08,0.19
2022-12-08 5:54:50.9920,0.32,-0.37,1.09,-0.3,-0.05,0.11
2022-12-08 5:54:51.0020,0.26,-0.45,0.97,-0.22,-0.08,0.08
2022-12-08 5:54:51.0120,0.12,-0.44,0.95,-0.1,-0.11,0.08
2022-12-08 5:54:51.0220,0.02,-0.38,0.66,0.0,-0.17,0.12
2022-12-08 5:54:51.0310,-0.06,-0.37,0.36,0.06,-0.23,0.16
2022-12-08 5:54:51.0420,-0.1,-0.29,0.07,0.08,-0.24,0.19
2022-12-08 5:54:51.0510,-0.1,-0.17,-0.26,0.06,-0.21,0.2
2022-12-08 5:54:51.0610,-0.02,-0.09,-0.57,0.01,-0.14,0.18
2022-12-08 5:54:51.0710,0.11,-0.04,-0.76,-0.01,-0.04,0.16
2022-12-08 5:54:51.0810,0.15,0.04,-0.96,-0.02,0.06,0.12
2022-12-08 5:54:51.0910,0.1,0.05,-1.2,0.01,0.14,0.08
2022-12-08 5:54:51.1010,0.01,0.05,-1.34,0.04,0.17,0.04
2022-12-08 5:54:51.1110,-0.12,0.1,-1.46,0.07,0.17,0.02
2022-12-08 5:54:51.1210,-0.2,0.12,-1.64,0.1,0.13,0.02
2022-12-08 5:54:51.1310,-0.29,0.1,-1.77,0.13,0.08,0.04
2022-12-08 5:54:51.1410,-0.39,0.09,-1.91,0.15,0.02,0.05
2022-12-08 5:54:51.1510,-0.43,0.05,-2.0,0.15,-0.04,0.07
2022-12-08 5:54:51.1610,-0.36,0.18,-1.89,0.14,-0.07,0.08
2022-12-08 5:54:51.1710,-0.36,0.18,-1.89,0.14,-0.07,0.09
2022-12-08 5:54:51.1810,-0.2,0.27,-1.78,0.17,-0.01,0.1
2022-12-08 5:54:51.1910,-0.1,0.29,-1.79,0.19,0.05,0.09
2022-12-08 5:54:51.2010,-0.17,0.34,-1.65,0.19,0.06,0.07
2022-12-08 5:54:51.2110,-0.17,0.34,-1.65,0.19,0.03,0.05
2022-12-08 5:54:51.2200,-0.21,0.4,-1.57,0.17,-0.01,0.04
2022-12-08 5:54:51.2300,-0.15,0.33,-1.57,0.14,-0.05,0.01
2022-12-08 5:54:51.2400,-0.06,0.24,-1.44,0.1,-0.07,-0.02
2022-12-08 5:54:51.2500,-0.04,0.24,-1.2,0.08,-0.08,-0.05
2022-12-08 5:54:51.2600,-0.01,0.21,-0.98,0.07,-0.07,-0.07
2022-12-08 5:54:51.2700,0.04,0.08,-0.82,0.07,-0.06,-0.1
2022-12-08 5:54:51.2800,0.04,-0.02,-0.48,0.09,-0.05,-0.12
2022-12-08 5:54:51.2900,-0.03,-0.04,-0.16,0.14,-0.01,-0.13
2022-12-08 5:54:51.3000,-0.05,-0.06,-0.08,0.21,0.05,-0.12
2022-12-08 5:54:51.3100,-0.05,-0.13,0.02,0.29,0.11,-0.11
2022-12-08 5:54:51.3200,-0.12,-0.17,0.19,0.35,0.16,-0.1
2022-12-08 5:54:51.3300,-0.21,-0.23,0.16,0.3,0.14,-0.11
2022-12-08 5:54:51.3400,-0.26,-0.28,0.23,0.18,0.07,-0.12
2022-12-08 5:54:51.3500,-0.31,-0.3,0.48,0.03,0.01,-0.14
2022-12-08 5:54:51.3600,-0.33,-0.34,0.62,-0.09,-0.02,-0.14
2022-12-08 5:54:51.3700,-0.3,-0.38,0.78,-0.15,-0.03,-0.14
2022-12-08 5:54:51.3800,-0.32,-0.44,1.11,-0.11,-0.01,-0.12
2022-12-08 5:54:51.3900,-0.5,-0.38,1.37,-0.01,0.06,-0.05
2022-12-08 5:54:51.4000,-0.66,-0.16,1.17,0.06,0.07,0.0
2022-12-08 5:54:51.4090,-0.68,-0.24,1.01,0.05,-0.01,0.04
2022-12-08 5:54:51.4200,-0.69,-0.29,1.06,-0.06,-0.09,0.04
2022-12-08 5:54:51.4290,-0.5,-0.14,0.91,-0.27,-0.18,-0.01
2022-12-08 5:54:51.4390,0.22,-0.46,1.24,-0.53,-0.23,-0.12
2022-12-08 5:54:51.4490,0.22,-0.46,1.24,-0.72,-0.22,-0.23
2022-12-08 5:54:51.4590,0.33,-0.46,1.68,-0.76,-0.11,-0.31
2022-12-08 5:54:51.4690,0.3,-0.42,2.04,-0.59,0.1,-0.31
2022-12-08 5:54:51.4790,0.11,-0.33,2.1,-0.29,0.3,-0.21
2022-12-08 5:54:51.4890,-0.11,-0.27,2.03,0.02,0.41,-0.03
2022-12-08 5:54:51.4990,-0.32,-0.21,1.7,0.24,0.41,0.16
2022-12-08 5:54:51.5090,-0.61,-0.03,1.3,0.32,0.34,0.33
2022-12-08 5:54:51.5190,-0.73,0.25,0.8,0.29,0.28,0.43
2022-12-08 5:54:51.5290,-0.6,0.33,0.15,0.14,0.21,0.44
2022-12-08 5:54:51.5390,-0.3,0.3,-0.26,-0.11,0.1,0.37
2022-12-08 5:54:51.5490,0.02,0.32,-0.28,-0.38,-0.04,0.21
2022-12-08 5:54:51.5590,0.36,0.31,-0.04,-0.59,-0.19,0.01
2022-12-08 5:54:51.5690,0.59,0.26,0.41,-0.64,-0.29,-0.19
2022-12-08 5:54:51.5790,0.65,0.16,0.85,-0.52,-0.31,-0.35
2022-12-08 5:54:51.5890,0.59,-0.05,1.09,-0.32,-0.31,-0.41
2022-12-08 5:54:51.5990,0.44,-0.2,1.19,-0.11,-0.27,-0.38
2022-12-08 5:54:51.6090,0.28,-0.19,1.11,0.04,-0.18,-0.25
2022-12-08 5:54:51.6180,0.2,-0.16,0.7,0.11,-0.05,-0.07
2022-12-08 5:54:51.6290,0.12,0.0,-0.19,0.11,0.06,0.1
2022-12-08 5:54:51.6380,0.12,0.0,-0.19,0.06,0.12,0.21
2022-12-08 5:54:51.6480,0.18,0.24,-0.83,0.02,0.18,0.26
2022-12-08 5:54:51.6580,0.18,0.24,-0.83,0.01,0.21,0.26
2022-12-08 5:54:51.6680,0.25,0.33,-1.09,0.03,0.21,0.2
2022-12-08 5:54:51.6780,0.27,0.41,-1.19,0.07,0.15,0.1
2022-12-08 5:54:51.6880,0.26,0.45,-1.2,0.12,0.09,-0.02
2022-12-08 5:54:51.6980,0.26,0.47,-1.31,0.19,0.02,-0.12
2022-12-08 5:54:51.7080,0.23,0.46,-1.43,0.24,-0.05,-0.18
2022-12-08 5:54:51.7180,0.13,0.47,-1.49,0.25,-0.1,-0.2
2022-12-08 5:54:51.7280,0.03,0.47,-1.53,0.24,-0.11,-0.19
2022-12-08 5:54:51.7380,-0.04,0.45,-1.61,0.21,-0.07,-0.15
2022-12-08 5:54:51.7480,-0.04,0.42,-1.63,0.17,0.0,-0.11
2022-12-08 5:54:51.7580,0.0,0.36,-1.59,0.12,0.09,-0.06
2022-12-08 5:54:51.7680,0.03,0.35,-1.54,0.07,0.15,-0.02
2022-12-08 5:54:51.7780,0.05,0.42,-1.48,0.03,0.15,0.0
2022-12-08 5:54:51.7880,0.01,0.43,-1.36,0.0,0.12,-0.0
2022-12-08 5:54:51.7980,0.03,0.5,-1.02,-0.0,0.07,-0.04
2022-12-08 5:54:51.8080,0.03,0.5,-1.02,0.02,0.04,-0.08
2022-12-08 5:54:51.8180,0.04,0.54,-0.86,0.07,0.02,-0.12
2022-12-08 5:54:51.8280,0.01,0.55,-0.72,0.13,0.01,-0.12
2022-12-08 5:54:51.8380,-0.05,0.56,-0.57,0.21,0.01,-0.09
2022-12-08 5:54:51.8470,-0.16,0.59,-0.57,0.27,0.01,-0.04
2022-12-08 5:54:51.8570,-0.16,0.59,-0.57,0.28,0.03,0.02
2022-12-08 5:54:51.8670,-0.17,0.56,-0.7,0.23,0.06,0.06
2022-12-08 5:54:51.8770,-0.13,0.55,-0.74,0.14,0.1,0.09
2022-12-08 5:54:51.8870,-0.13,0.63,-0.62,0.05,0.13,0.09
2022-12-08 5:54:51.8970,-0.1,0.51,-0.11,-0.0,0.11,0.08
2022-12-08 5:54:51.9070,-0.1,0.51,-0.11,0.01,0.07,0.06
2022-12-08 5:54:51.9170,-0.15,0.48,0.29,0.09,0.01,0.07
2022-12-08 5:54:51.9270,-0.11,0.4,0.55,0.19,-0.07,0.08
2022-12-08 5:54:51.9370,-0.05,0.25,0.77,0.26,-0.16,0.07
2022-12-08 5:54:51.9470,0.02,0.13,0.81,0.24,-0.2,0.05
2022-12-08 5:54:51.9570,0.21,0.02,0.89,0.13,-0.19,0.0
2022-12-08 5:54:51.9670,0.44,-0.08,0.95,-0.01,-0.16,-0.05
2022-12-08 5:54:51.9770,0.48,-0.15,1.22,-0.07,-0.03,-0.07
2022-12-08 5:54:51.9870,0.25,-0.01,1.48,0.05,0.19,-0.0
2022-12-08 5:54:51.9970,-0.06,0.11,1.45,0.24,0.42,0.13
2022-12-08 5:54:52.0070,-0.24,0.07,1.25,0.35,0.52,0.29
2022-12-08 5:54:52.0170,-0.27,-0.06,1.18,0.31,0.48,0.42
2022-12-08 5:54:52.0270,-0.16,0.15,0.86,0.16,0.42,0.49
2022-12-08 5:54:52.0370,-0.16,0.15,0.86,-0.06,0.34,0.45
2022-12-08 5:54:52.0470,0.06,0.08,0.65,-0.29,0.22,0.34
2022-12-08 5:54:52.0570,0.19,0.17,0.91,-0.43,0.13,0.2
2022-12-08 5:54:52.0660,0.17,0.32,1.1,-0.4,0.13,0.08
2022-12-08 5:54:52.0770,0.07,0.23,1.11,-0.2,0.18,0.04
2022-12-08 5:54:52.0860,0.05,0.05,1.27,0.06,0.22,0.07
2022-12-08 5:54:52.0970,-0.07,-0.12,1.3,0.27,0.19,0.15
2022-12-08 5:54:52.1060,-0.37,-0.15,1.2,0.37,0.14,0.27
2022-12-08 5:54:52.1160,-0.58,-0.1,0.78,0.35,0.09,0.39
2022-12-08 5:54:52.1260,-0.66,-0.08,0.18,0.23,0.07,0.48
2022-12-08 5:54:52.1360,-0.66,-0.13,-0.33,0.03,0.06,0.51
2022-12-08 5:54:52.1460,-0.72,-0.09,-0.66,-0.21,0.05,0.5
2022-12-08 5:54:52.1560,-0.73,-0.01,-0.84,-0.43,-0.0,0.43
2022-12-08 5:54:52.1660,-0.71,-0.06,-0.89,-0.6,-0.15,0.32
2022-12-08 5:54:52.1760,-0.78,-0.1,-0.59,-0.66,-0.33,0.21
2022-12-08 5:54:52.1860,-0.84,-0.13,-0.29,-0.63,-0.49,0.13
2022-12-08 5:54:52.1960,-0.81,-0.27,-0.22,-0.56,-0.64,0.08
2022-12-08 5:54:52.2060,-0.82,-0.41,-0.13,-0.46,-0.77,0.06
2022-12-08 5:54:52.2160,-0.84,-0.51,-0.02,-0.39,-0.83,0.05
2022-12-08 5:54:52.2260,-0.8,-0.65,-0.06,-0.31,-0.81,0.09
2022-12-08 5:54:52.2360,-0.65,-0.64,0.01,-0.2,-0.7,0.15
2022-12-08 5:54:52.2450,-0.36,-0.52,0.0,-0.09,-0.55,0.2
2022-12-08 5:54:52.2560,-0.32,-0.55,-0.12,-0.03,-0.44,0.22
2022-12-08 5:54:52.2650,-0.33,-0.52,-0.1,0.01,-0.32,0.2
2022-12-08 5:54:52.2750,-0.4,-0.39,-0.25,0.01,-0.2,0.16
2022-12-08 5:54:52.2850,-0.43,-0.37,-0.64,-0.0,-0.11,0.13
2022-12-08 5:54:52.2950,-0.45,-0.29,-0.97,-0.06,-0.05,0.11
2022-12-08 5:54:52.3050,-0.54,-0.22,-1.3,-0.16,-0.01,0.1
2022-12-08 5:54:52.3150,-0.64,-0.12,-1.57,-0.3,-0.02,0.09
2022-12-08 5:54:52.3250,-0.7,0.03,-1.55,-0.4,-0.08,0.1
2022-12-08 5:54:52.3350,-0.72,0.15,-1.26,-0.38,-0.15,0.13
2022-12-08 5:54:52.3450,-0.73,0.22,-0.95,-0.26,-0.22,0.16
2022-12-08 5:54:52.3550,-0.73,0.11,-0.63,-0.09,-0.27,0.18
2022-12-08 5:54:52.3650,-0.68,0.02,-0.39,0.07,-0.25,0.21
2022-12-08 5:54:52.3750,-0.64,0.05,-0.41,0.17,-0.17,0.22
2022-12-08 5:54:52.3850,-0.52,0.04,-0.61,0.17,-0.09,0.21
2022-12-08 5:54:52.3950,-0.4,0.08,-0.82,0.07,-0.04,0.17
2022-12-08 5:54:52.4050,-0.4,0.17,-0.8,-0.06,-0.01,0.13
2022-12-08 5:54:52.4150,-0.44,0.38,-0.63,-0.19,0.03,0.09
2022-12-08 5:54:52.4250,-0.42,0.51,-0.37,-0.26,0.09,0.06
2022-12-08 5:54:52.4350,-0.43,0.5,-0.09,-0.24,0.15,0.06
2022-12-08 5:54:52.4450,-0.58,0.56,0.18,-0.11,0.19,0.1
2022-12-08 5:54:52.4550,-0.77,0.43,0.45,0.08,0.22,0.18
2022-12-08 5:54:52.4650,-0.7,0.39,0.57,0.3,0.21,0.29
2022-12-08 5:54:52.4750,-0.62,0.34,0.47,0.51,0.18,0.39
2022-12-08 5:54:52.4840,-0.62,0.34,0.47,0.64,0.12,0.43
2022-12-08 5:54:52.4950,-0.55,0.37,0.23,0.67,0.04,0.41
2022-12-08 5:54:52.5040,-0.37,0.33,0.06,0.6,-0.06,0.33
2022-12-08 5:54:52.5140,-0.08,0.26,0.07,0.46,-0.13,0.24
2022-12-08 5:54:52.5240,0.31,0.2,0.07,0.31,-0.15,0.15
2022-12-08 5:54:52.5340,0.77,0.03,0.2,0.19,-0.07,0.04
2022-12-08 5:54:52.5440,1.03,-0.09,0.3,0.11,0.09,-0.07
2022-12-08 5:54:52.5540,0.94,-0.13,0.25,0.07,0.23,-0.16
2022-12-08 5:54:52.5640,0.67,-0.11,0.42,0.06,0.33,-0.22
2022-12-08 5:54:52.5740,0.35,-0.11,0.67,0.09,0.36,-0.22
2022-12-08 5:54:52.5840,-0.3,0.19,0.88,0.12,0.36,-0.18
2022-12-08 5:54:52.5940,-0.3,0.19,0.88,0.14,0.34,-0.11
2022-12-08 5:54:52.6040,-0.46,0.32,0.8,0.12,0.26,-0.08
2022-12-08 5:54:52.6140,-0.35,-0.02,0.83,0.03,0.13,-0.11
2022-12-08 5:54:52.6240,-0.02,-0.67,0.93,-0.15,-0.02,-0.18
2022-12-08 5:54:52.6340,0.41,-1.17,1.17,-0.38,-0.14,-0.26
2022-12-08 5:54:52.6440,0.64,-1.42,1.62,-0.51,-0.2,-0.32
2022-12-08 5:54:52.6540,0.7,-1.59,2.09,-0.45,-0.15,-0.29
2022-12-08 5:54:52.6640,0.55,-1.63,2.16,-0.18,0.02,-0.15
2022-12-08 5:54:52.6740,0.21,-1.34,1.96,0.22,0.26,0.1
2022-12-08 5:54:52.6830,-0.11,-1.09,1.47,0.57,0.4,0.37
2022-12-08 5:54:52.6940,-0.33,-0.97,0.94,0.75,0.35,0.59
2022-12-08 5:54:52.7030,-0.63,-0.73,0.58,0.78,0.2,0.75
2022-12-08 5:54:52.7130,-0.62,-0.46,0.17,0.65,0.04,0.76
2022-12-08 5:54:52.7230,-0.15,-0.66,-0.36,0.39,-0.14,0.62
2022-12-08 5:54:52.7330,0.4,-0.9,-0.54,0.09,-0.3,0.4
2022-12-08 5:54:52.7430,0.81,-0.83,-0.3,-0.18,-0.38,0.14
2022-12-08 5:54:52.7530,1.07,-0.74,-0.19,-0.38,-0.32,-0.12
2022-12-08 5:54:52.7630,1.13,-0.76,-0.18,-0.49,-0.21,-0.32
2022-12-08 5:54:52.7730,0.66,-0.49,0.21,-0.51,-0.1,-0.41
2022-12-08 5:54:52.7830,0.28,-0.4,0.3,-0.43,-0.01,-0.4
2022-12-08 5:54:52.7930,0.28,-0.4,0.27,-0.28,0.07,-0.32
2022-12-08 5:54:52.8030,-0.05,-0.34,0.27,-0.08,0.16,-0.19
2022-12-08 5:54:52.8130,-0.3,-0.26,0.14,0.09,0.19,-0.03
2022-12-08 5:54:52.8230,-0.5,-0.23,-0.08,0.17,0.14,0.11
2022-12-08 5:54:52.8330,-0.54,-0.18,-0.28,0.18,0.09,0.19
2022-12-08 5:54:52.8430,-0.4,-0.17,-0.62,0.13,0.03,0.18
2022-12-08 5:54:52.8530,-0.08,-0.32,-1.0,0.01,-0.05,0.1
2022-12-08 5:54:52.8630,0.14,-0.37,-1.11,-0.12,-0.11,-0.01
2022-12-08 5:54:52.8730,0.23,-0.22,-1.09,-0.22,-0.1,-0.11
2022-12-08 5:54:52.8820,0.36,-0.16,-1.2,-0.3,-0.02,-0.19
2022-12-08 5:54:52.8930,0.44,-0.16,-1.35,-0.35,0.06,-0.24
2022-12-08 5:54:52.9020,0.35,-0.03,-1.31,-0.37,0.09,-0.25
2022-12-08 5:54:52.9120,0.18,0.08,-1.15,-0.35,0.08,-0.23
2022-12-08 5:54:52.9220,0.05,0.11,-1.01,-0.28,0.09,-0.17
2022-12-08 5:54:52.9320,-0.01,0.18,-0.91,-0.14,0.13,-0.08
2022-12-08 5:54:52.9420,0.07,0.25,-0.81,0.05,0.17,0.01
2022-12-08 5:54:52.9520,0.3,0.23,-0.69,0.21,0.19,0.09
2022-12-08 5:54:52.9620,0.42,0.22,-0.7,0.31,0.19,0.13
2022-12-08 5:54:52.9720,0.47,0.33,-0.84,0.34,0.19,0.14
2022-12-08 5:54:52.9820,0.6,0.41,-1.1,0.29,0.2,0.12
2022-12-08 5:54:52.9920,0.78,0.47,-1.37,0.2,0.23,0.08
2022-12-08 5:54:53.0020,0.86,0.53,-1.55,0.12,0.29,0.03
2022-12-08 5:54:53.0120,0.82,0.64,-1.61,0.09,0.35,-0.01
2022-12-08 5:54:53.0220,0.69,0.68,-1.56,0.13,0.37,-0.02
2022-12-08 5:54:53.0320,0.51,0.61,-1.44,0.24,0.34,-0.0
2022-12-08 5:54:53.0420,0.32,0.57,-1.23,0.4,0.28,0.06
2022-12-08 5:54:53.0520,0.24,0.56,-1.18,0.52,0.21,0.12
2022-12-08 5:54:53.0620,0.2,0.55,-1.33,0.54,0.12,0.16
2022-12-08 5:54:53.0720,0.22,0.62,-1.35,0.47,0.02,0.15
2022-12-08 5:54:53.0820,0.39,0.63,-1.27,0.32,-0.06,0.09
2022-12-08 5:54:53.0920,0.67,0.44,-1.03,0.13,-0.11,-0.03
2022-12-08 5:54:53.1020,0.86,0.34,-0.63,-0.01,-0.09,-0.16
2022-12-08 5:54:53.1120,0.84,0.3,-0.3,-0.09,-0.02,-0.29
2022-12-08 5:54:53.1220,0.62,0.1,-0.03,-0.09,0.02,-0.36
2022-12-08 5:54:53.1320,0.26,0.03,0.61,0.0,0.11,-0.33
2022-12-08 5:54:53.1410,-0.04,0.2,0.9,0.15,0.21,-0.19
2022-12-08 5:54:53.1510,-0.16,0.3,0.89,0.34,0.29,-0.02
2022-12-08 5:54:53.1610,-0.03,0.14,0.83,0.48,0.26,0.11
2022-12-08 5:54:53.1720,0.02,-0.13,0.56,0.47,0.05,0.17
2022-12-08 5:54:53.1810,0.0,-0.19,0.76,0.33,-0.22,0.13
2022-12-08 5:54:53.1910,-0.01,-0.13,0.94,0.1,-0.47,-0.0
2022-12-08 5:54:53.2010,0.12,-0.23,1.13,-0.07,-0.59,-0.17
2022-12-08 5:54:53.2110,0.22,-0.36,1.48,-0.12,-0.51,-0.3
2022-12-08 5:54:53.2210,0.3,-0.44,1.51,-0.07,-0.32,-0.36
2022-12-08 5:54:53.2310,0.27,-0.56,1.26,0.0,-0.09,-0.31
2022-12-08 5:54:53.2410,0.11,-0.44,1.1,0.06,0.08,-0.19
2022-12-08 5:54:53.2510,0.11,-0.44,1.1,0.05,0.16,-0.08
2022-12-08 5:54:53.2610,-0.05,-0.42,0.6011417162418365,-0.06,0.16,-0.01
2022-12-08 5:54:53.2710,0.08,-0.46,0.87,-0.21,0.07,-0.0
2022-12-08 5:54:53.2810,0.08,-0.46,0.87,-0.33,-0.1,-0.05
2022-12-08 5:54:53.2910,0.11,-0.46,1.49,-0.33,-0.28,-0.13
2022-12-08 5:54:53.3000,0.09,-0.44,2.1,-0.19,-0.41,-0.2
2022-12-08 5:54:53.3100,0.14,-0.54,2.44,0.03,-0.44,-0.26
2022-12-08 5:54:53.3210,0.19,-0.7,2.39,0.19,-0.37,-0.29
2022-12-08 5:54:53.3310,0.31,-0.76,2.02,0.2,-0.19,-0.32
2022-12-08 5:54:53.3410,0.37,-0.68,1.55,0.08,0.05,-0.33
2022-12-08 5:54:53.3500,0.34,-0.55,0.92,-0.14,0.3,-0.34
2022-12-08 5:54:53.3600,0.28,-0.44,0.39,-0.38,0.5,-0.35
2022-12-08 5:54:53.3700,0.24,-0.36,0.04,-0.6,0.6,-0.37
2022-12-08 5:54:53.3800,0.09,-0.26,0.0,-0.71,0.6,-0.39
2022-12-08 5:54:53.3900,-0.17,-0.16,0.15,-0.68,0.45,-0.42
2022-12-08 5:54:53.4000,-0.75,-0.3,0.9,-0.46,0.24,-0.42
2022-12-08 5:54:53.4100,-0.75,-0.3,0.9,-0.16,0.06,-0.4
2022-12-08 5:54:53.4200,-0.79,-0.42,0.8,0.13,-0.12,-0.36
2022-12-08 5:54:53.4300,-0.68,-0.47,0.6,0.31,-0.24,-0.34
2022-12-08 5:54:53.4400,-0.48,-0.43,0.26,0.37,-0.27,-0.36
2022-12-08 5:54:53.4500,-0.31,-0.42,-0.38,0.33,-0.27,-0.41
2022-12-08 5:54:53.4600,-0.24,-0.4,-0.86,0.24,-0.22,-0.45
2022-12-08 5:54:53.4700,-0.23,-0.36,-1.26,0.16,-0.14,-0.46
2022-12-08 5:54:53.4800,-0.33,-0.3,-1.55,0.1,-0.04,-0.45
2022-12-08 5:54:53.4900,-0.45,-0.32,-1.8,0.04,0.06,-0.41
2022-12-08 5:54:53.5000,-0.54,-0.36,-1.94,-0.03,0.11,-0.36
2022-12-08 5:54:53.5100,-0.63,-0.32,-1.93,-0.1,0.1,-0.28
2022-12-08 5:54:53.5190,-0.67,-0.24,-1.76,-0.14,0.08,-0.19
2022-12-08 5:54:53.5290,-0.59,-0.19,-1.61,-0.14,0.07,-0.12
2022-12-08 5:54:53.5390,-0.5,-0.16,-1.52,-0.1,0.09,-0.08
2022-12-08 5:54:53.5490,-0.44,-0.06,-1.52,-0.06,0.15,-0.08
2022-12-08 5:54:53.5590,-0.21807329647243023,0.1,-1.58,-0.02,0.2,-0.11
2022-12-08 5:54:53.5690,-0.22,0.1,-1.58,0.0,0.29,-0.17
2022-12-08 5:54:53.5790,-0.16,0.21,-1.63,0.01,0.33,-0.24
2022-12-08 5:54:53.5890,-0.23,0.22,-1.6,0.02,0.27,-0.28
2022-12-08 5:54:53.5990,-0.47,0.26,-1.33,0.04,0.15,-0.28
2022-12-08 5:54:53.6090,-0.62,0.34,-1.2,0.08,0.01,-0.22
2022-12-08 5:54:53.6190,-0.65,0.29,-1.03,0.15,-0.07,-0.14
2022-12-08 5:54:53.6290,-0.6,0.27,-0.96,0.22,-0.1,-0.05
2022-12-08 5:54:53.6390,-0.55,0.26,-1.02,0.24,-0.11,0.0
2022-12-08 5:54:53.6490,-0.44,0.16,-0.91,0.22,-0.08,0.01
2022-12-08 5:54:53.6590,-0.28,0.16,-0.8,0.15,-0.02,-0.02
2022-12-08 5:54:53.6690,-0.11,0.15,-0.76,0.08,0.02,-0.09
2022-12-08 5:54:53.6790,-0.04,0.11,-0.38,0.06,0.05,-0.17
2022-12-08 5:54:53.6890,-0.13,0.11,-0.04,0.08,0.06,-0.24
2022-12-08 5:54:53.6990,-0.26,-0.11,0.18,0.1,0.01,-0.25
2022-12-08 5:54:53.7090,-0.39,-0.27,0.5,0.1,-0.06,-0.19
2022-12-08 5:54:53.7180,-0.4,-0.22,0.67,0.06,-0.11,-0.13
2022-12-08 5:54:53.7280,-0.26,-0.31,0.77,-0.03,-0.12,-0.1
2022-12-08 5:54:53.7390,-0.15,-0.39,0.88,-0.1,-0.09,-0.05
2022-12-08 5:54:53.7480,-0.14,-0.24,1.03,-0.14,-0.01,-0.01
2022-12-08 5:54:53.7580,-0.11,-0.07,1.1,-0.11,0.04,0.01
2022-12-08 5:54:53.7680,-0.13,0.11,1.29,-0.03,0.03,-0.01
2022-12-08 5:54:53.7780,-0.14,0.15,1.33,0.05,-0.05,-0.06
2022-12-08 5:54:53.7880,-0.02,-0.08,1.26,0.05,-0.18,-0.15
2022-12-08 5:54:53.7980,0.11,-0.24,1.25,-0.03,-0.25,-0.25
2022-12-08 5:54:53.8080,0.27,-0.29,1.06,-0.18,-0.25,-0.35
2022-12-08 5:54:53.8180,0.48,-0.5,0.86,-0.35,-0.18,-0.42
2022-12-08 5:54:53.8280,0.49,-0.56,0.91,-0.44,-0.04,-0.45
2022-12-08 5:54:53.8380,0.3,-0.4,0.91,-0.4,0.11,-0.43
2022-12-08 5:54:53.8480,0.05,-0.31,0.73,-0.29,0.21,-0.35
2022-12-08 5:54:53.8580,-0.13,-0.22,0.67,-0.14,0.22,-0.22
2022-12-08 5:54:53.8680,-0.24,-0.01,0.53,-0.02,0.16,-0.09
2022-12-08 5:54:53.8780,-0.31,0.12,0.33,0.04,0.06,-0.02
2022-12-08 5:54:53.8880,-0.27,0.26,0.13,0.02,-0.06,-0.01
2022-12-08 5:54:53.8980,-0.04,0.3,-0.05,-0.09,-0.17,-0.09
2022-12-08 5:54:53.9070,0.29,0.16,-0.02,-0.26,-0.25,-0.23
2022-12-08 5:54:53.9180,0.57,0.08,0.17,-0.44,-0.27,-0.42
2022-12-08 5:54:53.9280,0.82,-0.05,0.5,-0.58,-0.22,-0.61
2022-12-08 5:54:53.9370,0.76,-0.34,1.17,-0.61,-0.12,-0.73
2022-12-08 5:54:53.9470,0.76,-0.34,1.17,-0.56,-0.03,-0.76
2022-12-08 5:54:53.9570,0.43,-0.45,1.34,-0.43,-0.02,-0.68
2022-12-08 5:54:53.9670,0.01,-0.49,1.65,-0.23,0.0,-0.49
2022-12-08 5:54:53.9770,-0.21,-0.44,1.58,-0.01,0.05,-0.23
2022-12-08 5:54:53.9870,-0.22,-0.37,1.13,0.15,0.1,0.04
2022-12-08 5:54:53.9970,-0.18,0.08,0.48,0.21,0.11,0.24
2022-12-08 5:54:54.0070,-0.16,0.08,0.48,0.21,0.15,0.34
2022-12-08 5:54:54.0170,-0.03,0.35,0.04,0.18,0.2,0.36
2022-12-08 5:54:54.0270,0.13,0.55,-0.39,0.15,0.21,0.31
2022-12-08 5:54:54.0370,0.2,0.74,-0.59,0.1,0.15,0.22
2022-12-08 5:54:54.0470,0.17,0.86,-0.65,0.07,0.04,0.1
2022-12-08 5:54:54.0570,0.1,0.91,-0.62,0.08,-0.05,-0.02
2022-12-08 5:54:54.0670,0.1,0.96,-0.74,0.1,-0.09,-0.11
2022-12-08 5:54:54.0770,0.17,0.92,-0.75,0.13,-0.11,-0.14
2022-12-08 5:54:54.0870,0.27,0.89,-0.6,0.19,-0.06,-0.12
2022-12-08 5:54:54.0970,0.32,0.88,-0.64,0.23,0.02,-0.08
2022-12-08 5:54:54.1070,0.33,0.81,-0.73,0.26,0.08,-0.04
2022-12-08 5:54:54.1170,0.25,0.83,-0.69,0.28,0.1,0.0
2022-12-08 5:54:54.1270,0.11,0.87,-0.64,0.3,0.12,0.04
2022-12-08 5:54:54.1370,0.08,0.83,-0.68,0.35,0.14,0.06
2022-12-08 5:54:54.1470,0.15,0.71,-0.76,0.38,0.14,0.06
2022-12-08 5:54:54.1570,0.35,0.65,-0.68,0.4,0.14,0.04
2022-12-08 5:54:54.1770,0.4,0.64,-0.69,0.41,0.18,-0.0
2022-12-08 5:54:54.1800,0.35,0.6,-0.67,0.42,0.18,-0.05
2022-12-08 5:54:54.1860,0.35,0.6,-0.67,0.44,0.16,-0.07
2022-12-08 5:54:54.1960,0.23,0.51,-0.62,0.44,0.09,-0.06
2022-12-08 5:54:54.2060,0.1,0.37,-0.64,0.42,-0.01,-0.01
2022-12-08 5:54:54.2160,-0.02,0.28,-0.57,0.39,-0.1,0.07
2022-12-08 5:54:54.2260,-0.11,0.16,-0.48,0.37,-0.12,0.13
2022-12-08 5:54:54.2370,-0.11,0.16,-0.48,0.38,-0.1,0.17
2022-12-08 5:54:54.2460,0.09,-0.05,-0.36,0.42,-0.07,0.21
2022-12-08 5:54:54.2560,0.09,-0.05,-0.36,0.45,-0.03,0.22
2022-12-08 5:54:54.2660,0.15,-0.07,-0.32,0.46,-0.03,0.2
2022-12-08 5:54:54.2760,0.26,-0.16,-0.15,0.45,-0.01,0.14
2022-12-08 5:54:54.2860,0.35,-0.16,-0.15,0.41,0.06,0.06
2022-12-08 5:54:54.2960,0.45,-0.16,-0.15,0.31,0.13,-0.02
2022-12-08 5:54:54.3060,0.42,-0.1475711515545845,-0.07,0.15,0.16,-0.06
2022-12-08 5:54:54.3160,0.06,-0.11,0.31,-0.02,0.14,-0.08
2022-12-08 5:54:54.3260,0.06,-0.11,0.31,-0.13,0.12,-0.05
2022-12-08 5:54:54.3360,-0.18,-0.08,0.69,-0.11,0.14,0.04
2022-12-08 5:54:54.3460,-0.4,0.02,0.82,0.02,0.15,0.17
2022-12-08 5:54:54.3550,-0.54,0.12,0.85,0.17,0.15,0.3
2022-12-08 5:54:54.3650,-0.22,-0.02,0.55,0.25,0.11,0.4
2022-12-08 5:54:54.3750,-0.06,0.02,0.57,0.19,-0.01,0.41
2022-12-08 5:54:54.3860,0.28,0.02,0.76,0.01,-0.16,0.34
2022-12-08 5:54:54.3950,0.28,0.02,0.76,-0.21,-0.26,0.2
2022-12-08 5:54:54.4050,0.54,-0.09,0.97,-0.37,-0.3,0.03
2022-12-08 5:54:54.4150,0.51,-0.18,1.33,-0.41,-0.29,-0.09
2022-12-08 5:54:54.4250,0.36,-0.29,1.71,-0.34,-0.25,-0.14
2022-12-08 5:54:54.4350,0.19,-0.46,1.91,-0.21,-0.24,-0.1
2022-12-08 5:54:54.4450,-0.1,-0.57,2.05,-0.05,-0.24,0.01
2022-12-08 5:54:54.4550,-0.28,-0.6,1.95,0.08,-0.18,0.18
2022-12-08 5:54:54.4650,-0.27,-0.63,1.47,0.13,-0.12,0.37
2022-12-08 5:54:54.4750,-0.26,-0.54,1.07,0.07,-0.1,0.5
2022-12-08 5:54:54.4850,-0.36,-0.42,0.88,-0.04,-0.09,0.54
2022-12-08 5:54:54.4950,-0.37,-0.35,0.59,-0.16,-0.07,0.52
2022-12-08 5:54:54.5050,-0.3,-0.27,0.37,-0.24,-0.05,0.45
2022-12-08 5:54:54.5150,-0.27,-0.22,0.31,-0.26,-0.07,0.35
2022-12-08 5:54:54.5250,-0.29,-0.15,0.33,-0.22,-0.12,0.24
2022-12-08 5:54:54.5350,-0.36,-0.19,0.35,-0.14,-0.18,0.16
2022-12-08 5:54:54.5450,-0.43,-0.22,0.26,-0.07,-0.23,0.1
2022-12-08 5:54:54.5600,-0.61,-0.25,-0.01,-0.02,-0.27,0.08
2022-12-08 5:54:54.5650,-0.61,-0.25,-0.01,-0.0,-0.28,0.09
2022-12-08 5:54:54.5790,-0.72,-0.3,-0.55,-0.0,-0.26,0.12
2022-12-08 5:54:54.5860,-0.72,-0.3,-0.55,-0.03,-0.23,0.16
2022-12-08 5:54:54.5940,-0.7,-0.3,-0.78,-0.07,-0.17,0.18
2022-12-08 5:54:54.6040,-0.61,-0.28,-0.97,-0.12,-0.1,0.19
2022-12-08 5:54:54.6190,-0.37,-0.2,-1.22,-0.15,-0.01,0.18
2022-12-08 5:54:54.6240,-0.37,-0.2,-1.22,-0.14,0.08,0.15
2022-12-08 5:54:54.6340,-0.28,-0.12,-1.3,-0.09,0.16,0.12
2022-12-08 5:54:54.6440,-0.3,0.0,-1.66,-0.02,0.25,0.07
2022-12-08 5:54:54.6540,-0.3,0.0,-1.66,0.04,0.31,0.04
Time,-0.4,0.27,-2.02,0.08,0.34,0.02
2022-12-08 5:54:54.6740,-0.4,0.27,-2.02,0.11,0.32,0.0
2022-12-08 5:54:54.6840,-0.74,0.32,-2.14,0.12,0.24,-0.02
2022-12-08 5:54:54.6940,-0.74,0.27913598880171775,-2.06,0.11,0.08,-0.04
2022-12-08 5:54:54.7040,-0.97,0.31,-1.95,0.1,-0.07,-0.04
2022-12-08 5:54:54.7140,-0.9,0.32,-1.81,0.08,-0.16,-0.04
2022-12-08 5:54:54.7240,-0.9,0.32,-1.81,0.07,-0.16,-0.04
2022-12-08 5:54:54.7340,-0.77,0.29,-1.64,0.09,-0.09,-0.04
2022-12-08 5:54:54.7430,-0.68,0.34,-1.46,0.13,-0.01,-0.01
2022-12-08 5:54:54.7540,-0.6,0.42,-1.17,0.22,0.11,0.02
2022-12-08 5:54:54.7630,-0.47,0.5,-0.95,0.33,0.23,0.06
2022-12-08 5:54:54.7740,-0.36,0.49,-0.94,0.38,0.28,0.08
2022-12-08 5:54:54.7830,-0.36,0.61,-0.84,0.39,0.27,0.09
2022-12-08 5:54:54.7940,-0.41,0.61,-0.84,0.37,0.23,0.07
2022-12-08 5:54:54.8040,-0.29,0.57,-0.89,0.33,0.16,0.02
2022-12-08 5:54:54.8130,-0.29,0.57,-0.89,0.29,0.07,-0.07
2022-12-08 5:54:54.8230,-0.28,0.53,-0.66,0.26,-0.02,-0.17
2022-12-08 5:54:54.8330,-0.27,0.3073993827402592,-0.11,0.25,-0.08,-0.27
2022-12-08 5:54:54.8430,-0.26,0.3,-0.11,0.26,-0.13,-0.33
2022-12-08 5:54:54.8530,-0.29,0.16,0.13,0.26,-0.12,-0.38
2022-12-08 5:54:54.8630,-0.34,0.0,0.26,0.26,-0.1,-0.4
2022-12-08 5:54:54.8730,-0.4,-0.1,0.53,0.29,-0.04,-0.38
2022-12-08 5:54:54.8830,-0.38,-0.21,0.61,0.3,0.03,-0.34
2022-12-08 5:54:54.8930,-0.34,-0.44,0.65,0.28,0.07,-0.28
2022-12-08 5:54:54.9030,-0.32,-0.54,0.87,0.22,0.07,-0.22
2022-12-08 5:54:54.9130,-0.3,-0.61,1.11,0.15,0.06,-0.19
2022-12-08 5:54:54.9230,-0.32,-0.69,1.3,0.12,0.1,-0.16
2022-12-08 5:54:54.9330,-0.38,-0.59,1.28,0.14,0.17,-0.12
2022-12-08 5:54:54.9430,-0.51,-0.47,1.04,0.14,0.15,-0.13
2022-12-08 5:54:54.9530,-0.57,-0.59,0.96,0.11,0.01,-0.16
2022-12-08 5:54:54.9630,-0.47,-0.87,0.99,0.02,-0.14,-0.21
2022-12-08 5:54:54.9730,-0.47,-0.87,0.99,-0.14,-0.22,-0.26
2022-12-08 5:54:54.9830,-0.23,-1.0,1.04,-0.28,-0.16,-0.31
2022-12-08 5:54:54.9930,0.06,-1.08,1.3,-0.32,0.0,-0.34
2022-12-08 5:54:55.0030,0.14,-1.04,1.64,-0.25,0.27,-0.3
2022-12-08 5:54:55.0130,0.07,-0.86,1.5,-0.09,0.52,-0.16
2022-12-08 5:54:55.0230,-0.01,-0.68,1.17,0.05,0.63,0.01
2022-12-08 5:54:55.0320,-0.35,-0.61,0.94,0.13,0.59,0.18
2022-12-08 5:54:55.0420,-0.67,-0.3,0.69,0.14,0.52,0.31
2022-12-08 5:54:55.0520,-0.7,0.05,0.17,0.05,0.42,0.35
2022-12-08 5:54:55.0620,-0.48,0.07,-0.38,-0.13,0.23,0.3
2022-12-08 5:54:55.0720,-0.27,0.08,-0.42,-0.38,-0.02,0.16
2022-12-08 5:54:55.0820,-0.06,0.16,-0.32,-0.63,-0.28,-0.07
2022-12-08 5:54:55.0920,0.18,-0.05,0.11,-0.79,-0.43,-0.31
2022-12-08 5:54:55.1020,0.38,-0.2,0.58,-0.81,-0.46,-0.5
2022-12-08 5:54:55.1120,0.49,-0.32,0.83,-0.71,-0.47,-0.6
2022-12-08 5:54:55.1220,0.39,-0.59,1.25,-0.53,-0.43,-0.61
2022-12-08 5:54:55.1320,0.15,-0.62,1.43,-0.32,-0.3,-0.51
2022-12-08 5:54:55.1420,-0.04,-0.62,1.2,-0.11,-0.09,-0.3
2022-12-08 5:54:55.1520,-0.03,-0.45,0.53,0.03,0.13,-0.04
2022-12-08 5:54:55.1620,-0.03,-0.45,0.53,0.08,0.29,0.19
2022-12-08 5:54:55.1720,-0.07,-0.33,0.13,0.09,0.41,0.36
2022-12-08 5:54:55.1820,-0.04,-0.07,-0.32,0.09,0.52,0.43
2022-12-08 5:54:55.1910,0.1,0.06,-0.8,0.09,0.57,0.42
2022-12-08 5:54:55.2020,0.25,0.21,-1.1,0.09,0.54,0.36
2022-12-08 5:54:55.2120,0.31,0.38,-1.3,0.1,0.44,0.25
2022-12-08 5:54:55.2220,0.3,0.38,-1.54,0.11,0.27,0.12
2022-12-08 5:54:55.2310,0.17,0.49,-1.74,0.12,0.1,-0.01
2022-12-08 5:54:55.2410,0.02,0.57,-1.94,0.11,-0.01,-0.11
2022-12-08 5:54:55.2510,0.06,0.51,-2.16,0.06,-0.06,-0.18
2022-12-08 5:54:55.2610,0.06,0.59,-2.08,-0.01,-0.05,-0.2
2022-12-08 5:54:55.2710,0.06,0.59,-2.08,-0.07,-0.04,-0.21
2022-12-08 5:54:55.2810,-0.1,0.61,-1.95,-0.11,-0.03,-0.2
2022-12-08 5:54:55.2910,-0.28,0.61,-1.88,-0.11,-0.05,-0.17
2022-12-08 5:54:55.3010,-0.39,0.54,-1.65,-0.1,-0.12,-0.15
2022-12-08 5:54:55.3110,-0.49,0.43,-1.33,-0.06,-0.17,-0.11
2022-12-08 5:54:55.3210,-0.52,0.39,-1.15,-0.01,-0.16,-0.07
2022-12-08 5:54:55.3310,-0.41,0.33,-1.05,0.01,-0.12,-0.03
2022-12-08 5:54:55.3410,-0.22,0.26,-0.94,0.0,-0.02,0.01
2022-12-08 5:54:55.3510,-0.09,0.27,-0.89,-0.01,0.07,0.04
2022-12-08 5:54:55.3620,-0.06,0.33,-0.73,-0.01,0.13,0.08
2022-12-08 5:54:55.3710,-0.12,0.37,-0.5,0.04,0.17,0.12
2022-12-08 5:54:55.3810,-0.21,0.43,-0.27,0.12,0.2,0.15
2022-12-08 5:54:55.3910,-0.27,0.45,-0.23,0.22,0.19,0.18
2022-12-08 5:54:55.4000,-0.3,0.41,-0.16,0.3,0.13,0.21
2022-12-08 5:54:55.4100,-0.36,0.43,-0.06,0.33,0.07,0.24
2022-12-08 5:54:55.4210,-0.38,0.44,-0.02,0.34,0.01,0.26
2022-12-08 5:54:55.4300,-0.39,0.4,0.05,0.33,-0.0,0.27
2022-12-08 5:54:55.4400,-0.35,0.34,0.06,0.29,0.01,0.27
2022-12-08 5:54:55.4500,-0.27,0.32,0.08,0.24,0.01,0.25
2022-12-08 5:54:55.4600,-0.18,0.28,0.18,0.18,0.01,0.21
2022-12-08 5:54:55.4700,-0.03,0.18,0.36,0.11,0.03,0.17
2022-12-08 5:54:55.4800,0.1,0.11,0.53,0.06,0.07,0.13
2022-12-08 5:54:55.4900,0.2,0.06,0.78,0.04,0.13,0.1
2022-12-08 5:54:55.5000,0.32,0.01,1.03,0.03,0.23,0.07
2022-12-08 5:54:55.5100,0.32,-0.05,1.15,0.03,0.32,0.08
2022-12-08 5:54:55.5200,0.17,0.08,1.22,0.04,0.39,0.13
2022-12-08 5:54:55.5300,-0.04,0.19,1.24,0.07,0.42,0.24
2022-12-08 5:54:55.5400,-0.34,0.39,1.01,0.11,0.41,0.36
2022-12-08 5:54:55.5500,-0.58,0.59,0.6,0.06,0.29,0.4
2022-12-08 5:54:55.5600,-0.64,0.49,0.4,-0.07,0.12,0.39
2022-12-08 5:54:55.5700,-0.6,0.45,0.35,-0.29,-0.08,0.31
2022-12-08 5:54:55.5850,-0.17,0.16,1.04,-0.52,-0.32,0.19
2022-12-08 5:54:55.5900,0.07,-0.03,1.74,-0.65,-0.47,0.07
2022-12-08 5:54:55.6000,0.27,-0.3,2.07,-0.63,-0.46,-0.03
2022-12-08 5:54:55.6100,0.27,-0.3,2.07,-0.47,-0.38,-0.07
2022-12-08 5:54:55.6200,0.29,-0.52,2.26,-0.24,-0.26,-0.02
2022-12-08 5:54:55.6290,0.23,-0.56,2.23,-0.01,-0.13,0.14
2022-12-08 5:54:55.6390,0.24,-0.54,2.05,0.12,-0.02,0.34
2022-12-08 5:54:55.6490,0.0,-0.27,1.34,0.11,-0.01,0.49
2022-12-08 5:54:55.6590,0.0,-0.27,1.34,-0.0,-0.02,0.55
2022-12-08 5:54:55.6690,-0.03,-0.13,1.12,-0.17,0.0,0.51
2022-12-08 5:54:55.6790,0.16,-0.09,0.72,-0.34,0.02,0.39
2022-12-08 5:54:55.6890,0.36,-0.1,0.67,-0.45,0.02,0.23
2022-12-08 5:54:55.6990,0.4,-0.05,0.82,-0.45,0.04,0.08
2022-12-08 5:54:55.7090,0.31,-0.02,0.74,-0.36,0.03,-0.05
2022-12-08 5:54:55.7190,0.05,-0.2,0.58,-0.24,-0.02,-0.12
2022-12-08 5:54:55.7290,0.05,-0.2,0.58,-0.13,-0.07,-0.13
2022-12-08 5:54:55.7390,-0.08,-0.17,0.32,-0.05,-0.09,-0.1
2022-12-08 5:54:55.7490,-0.12,-0.23,-0.4836319774389267,-0.03,-0.09,-0.07
2022-12-08 5:54:55.7590,-0.16,-0.32,-0.49,-0.02,-0.08,-0.04
2022-12-08 5:54:55.7690,-0.29,-0.31,-0.67,0.01,-0.06,0.02
2022-12-08 5:54:55.7790,-0.33,-0.28,-0.8,0.09,0.0,0.08
2022-12-08 5:54:55.7890,-0.26,-0.33,-1.11,0.16,0.09,0.15
2022-12-08 5:54:55.7990,-0.15,-0.12,-1.82,0.19,0.18,0.19
2022-12-08 5:54:55.8090,-0.15,-0.12,-1.82,0.16,0.21,0.2
2022-12-08 5:54:55.8190,-0.1,0.02,-1.98,0.12,0.23,0.18
2022-12-08 5:54:55.8290,-0.05,0.18,-2.2,0.12,0.26,0.15
2022-12-08 5:54:55.8390,-0.03,0.29,-2.59,0.14,0.23,0.11
2022-12-08 5:54:55.8480,-0.12,0.32,-2.73,0.17,0.14,0.08
2022-12-08 5:54:55.8580,-0.24,0.37,-2.75,0.18,0.04,0.04
2022-12-08 5:54:55.8680,-0.35,0.42,-2.86,0.15,-0.04,0.01
2022-12-08 5:54:55.8780,-0.41,0.45,-2.98,0.1,-0.1,-0.01
2022-12-08 5:54:55.8880,-0.51,0.5,-2.87,0.06,-0.16,-0.01
2022-12-08 5:54:55.8980,-0.6,0.58,-2.59,0.03,-0.2,-0.02
2022-12-08 5:54:55.9080,-0.64,0.51,-2.21,0.01,-0.2,-0.04
2022-12-08 5:54:55.9180,-0.59,0.42,-1.87,0.0,-0.19,-0.04
2022-12-08 5:54:55.9280,-0.53,0.51,-1.39,0.02,-0.14,-0.03
2022-12-08 5:54:55.9380,-0.46,0.52,-1.16,0.03,-0.1,-0.05
2022-12-08 5:54:55.9480,-0.38,0.33,-0.95,0.02,-0.09,-0.06
2022-12-08 5:54:55.9580,-0.33,0.29,-0.67,0.01,-0.1,-0.1
2022-12-08 5:54:55.9680,-0.4,0.08,0.08,0.01,-0.15,-0.15
2022-12-08 5:54:55.9780,-0.4,0.08,0.08,0.05,-0.2,-0.18
2022-12-08 5:54:55.9880,-0.57,-0.07,0.52,0.14,-0.21,-0.19
2022-12-08 5:54:55.9980,-0.59,-0.22,0.77,0.23,-0.14,-0.17
2022-12-08 5:54:56.0080,-0.52,-0.31,0.85,0.27,-0.05,-0.13
2022-12-08 5:54:56.0180,-0.46,-0.37,0.91,0.23,0.03,-0.07
2022-12-08 5:54:56.0280,-0.41,-0.36,1.06,0.16,0.07,-0.01
2022-12-08 5:54:56.0370,-0.47,-0.31,1.21,0.11,0.07,0.05
2022-12-08 5:54:56.0470,-0.42,-0.19,1.56,0.1,0.08,0.11
2022-12-08 5:54:56.0580,-0.42,-0.19,1.56,0.16,0.11,0.14
2022-12-08 5:54:56.0670,-0.24,-0.24,1.55,0.2,0.15,0.15
2022-12-08 5:54:56.0770,-0.1,-0.26,1.55,0.19,0.16,0.12
2022-12-08 5:54:56.0870,0.03,-0.26,1.58,0.16,0.15,0.11
2022-12-08 5:54:56.0970,0.09,-0.2,1.57,0.13,0.16,0.12
2022-12-08 5:54:56.1070,0.14,-0.08,1.43,0.15,0.19,0.13
2022-12-08 5:54:56.1170,-0.14856605529785158,0.27,1.18,0.24,0.24,0.16
2022-12-08 5:54:56.1270,-0.15,0.27,1.18,0.34,0.18,0.17
2022-12-08 5:54:56.1370,-0.37,0.31,1.04,0.41,0.02,0.18
2022-12-08 5:54:56.1470,-0.38,0.14,1.07,0.39,-0.11,0.19
2022-12-08 5:54:56.1570,-0.27,0.25,0.82,0.27,-0.16,0.17
2022-12-08 5:54:56.1670,-0.03,0.37,0.56,0.08,-0.13,0.09
2022-12-08 5:54:56.1770,0.26,0.28,0.5,-0.11,0.02,-0.04
2022-12-08 5:54:56.1870,0.45,0.31,0.49,-0.22,0.24,-0.18
2022-12-08 5:54:56.1970,0.29,0.4,0.44,-0.24,0.44,-0.31
2022-12-08 5:54:56.2070,0.29,0.4,0.44,-0.2,0.5,-0.39
2022-12-08 5:54:56.2170,-0.01,0.28,0.35,-0.15,0.36,-0.41
2022-12-08 5:54:56.2270,-0.32,0.17,0.58,-0.08,0.14,-0.39
2022-12-08 5:54:56.2370,-0.37,0.03,0.66,-0.07,-0.1,-0.37
2022-12-08 5:54:56.2470,-0.22,-0.34,0.47,-0.18,-0.32,-0.36
2022-12-08 5:54:56.2570,-0.12,-0.6,0.63,-0.35,-0.46,-0.37
2022-12-08 5:54:56.2670,-0.09,-0.63,0.98,-0.49,-0.45,-0.38
2022-12-08 5:54:56.2770,0.05,-0.74,1.24,-0.54,-0.34,-0.4
2022-12-08 5:54:56.2860,0.1,-1.01,1.4,-0.5,-0.22,-0.37
2022-12-08 5:54:56.2960,-0.01,-1.15,1.64,-0.39,-0.13,-0.26
2022-12-08 5:54:56.3060,-0.15,-1.12,1.79,-0.23,-0.06,-0.09
2022-12-08 5:54:56.3160,-0.17,-1.09,1.67,-0.06,0.01,0.12
2022-12-08 5:54:56.3260,-0.09,-1.01,1.26,0.06,0.08,0.29
2022-12-08 5:54:56.3360,-0.04,-0.83,0.7,0.12,0.14,0.42
2022-12-08 5:54:56.3460,0.02,-0.53,0.09,0.15,0.22,0.5
2022-12-08 5:54:56.3560,0.21,-0.25,-0.52,0.14,0.3,0.53
2022-12-08 5:54:56.3660,0.41,-0.04,-1.15,0.09,0.37,0.52
2022-12-08 5:54:56.3760,0.52,0.2,-1.72,0.02,0.39,0.47
2022-12-08 5:54:56.3860,0.55,0.44,-2.12,-0.05,0.34,0.38
2022-12-08 5:54:56.3960,0.53,0.59,-2.36,-0.11,0.22,0.26
2022-12-08 5:54:56.4060,0.44,0.64,-2.37,-0.13,0.05,0.09
2022-12-08 5:54:56.4160,0.34,0.56,-2.21,-0.1,-0.11,-0.07
2022-12-08 5:54:56.4260,0.27,0.56,-2.11,-0.06,-0.27,-0.2
2022-12-08 5:54:56.4360,0.19,0.51,-1.9,0.01,-0.39,-0.29
2022-12-08 5:54:56.4450,0.04,0.37,-1.53,0.09,-0.4,-0.31
2022-12-08 5:54:56.4560,-0.08,0.26,-1.48,0.15,-0.32,-0.27
2022-12-08 5:54:56.4650,-0.22,0.2,-1.53,0.17,-0.18,-0.19
2022-12-08 5:54:56.4760,-0.31,0.21,-1.57,0.17,-0.01,-0.08
2022-12-08 5:54:56.4860,-0.36,0.19,-1.64,0.14,0.14,0.06
2022-12-08 5:54:56.4950,-0.35,0.18,-1.68,0.11,0.23,0.16
2022-12-08 5:54:56.5050,-0.37,0.23,-1.56,0.1,0.22,0.2
2022-12-08 5:54:56.5150,-0.38,0.26,-1.32,0.13,0.15,0.19
2022-12-08 5:54:56.5250,-0.32,0.25,-1.13,0.19,0.06,0.15
2022-12-08 5:54:56.5350,-0.21,0.27,-0.92,0.28,-0.04,0.1
2022-12-08 5:54:56.5450,-0.11,0.26,-0.74,0.37,-0.13,0.03
2022-12-08 5:54:56.5550,-0.12,0.25,-0.6,0.44,-0.18,-0.02
2022-12-08 5:54:56.5650,-0.18,0.25,-0.58,0.47,-0.18,-0.03
2022-12-08 5:54:56.5750,-0.39,0.31,-0.43,0.47,-0.18,-0.01
2022-12-08 5:54:56.5850,-0.39,0.31,-0.43,0.47,-0.13,0.04
2022-12-08 5:54:56.5950,-0.46,0.31,-0.32,0.47,-0.05,0.09
2022-12-08 5:54:56.6050,-0.35,0.16,-0.35,0.43,0.03,0.14
2022-12-08 5:54:56.6150,-0.15,0.08,-0.27,0.35,0.09,0.16
2022-12-08 5:54:56.6250,-0.02,0.07,-0.04,0.25,0.14,0.15
2022-12-08 5:54:56.6350,0.09,0.0,0.15,0.17,0.17,0.1
2022-12-08 5:54:56.6450,0.21,-0.14,0.37,0.11,0.17,0.02
2022-12-08 5:54:56.6550,0.21,-0.28,0.73,0.09,0.13,-0.04
2022-12-08 5:54:56.6650,0.07,-0.38,1.14,0.12,0.08,-0.07
2022-12-08 5:54:56.6750,-0.09,-0.51,1.42,0.2,0.03,-0.02
2022-12-08 5:54:56.6850,-0.35,-0.42,1.53,0.31,0.04,0.09
2022-12-08 5:54:56.6950,-0.68,-0.13,1.35,0.4,0.05,0.2
2022-12-08 5:54:56.7050,-0.82,-0.11,0.85,0.35,-0.0,0.27
2022-12-08 5:54:56.7150,-0.9,-0.18,0.59,0.14,-0.1,0.29
2022-12-08 5:54:56.7240,-0.88,-0.08,0.65,-0.16,-0.16,0.26
2022-12-08 5:54:56.7340,-0.59,-0.1,0.8,-0.42,-0.13,0.17
2022-12-08 5:54:56.7440,-0.06,-0.51,1.73,-0.54,-0.05,0.07
2022-12-08 5:54:56.7540,-0.06,-0.51,1.73,-0.47,0.03,-0.0
2022-12-08 5:54:56.7640,-0.13,-0.73,2.24,-0.28,0.06,-0.03
2022-12-08 5:54:56.7740,-0.35,-0.95,2.45,-0.07,0.03,0.03
2022-12-08 5:54:56.7840,-0.51,-1.04,2.41,0.1,-0.01,0.17
2022-12-08 5:54:56.7940,-0.53,-1.02,2.12,0.16,-0.04,0.34
2022-12-08 5:54:56.8040,-0.46,-0.85,1.66,0.13,-0.03,0.48
2022-12-08 5:54:56.8140,-0.26,-0.55,0.85,0.06,-0.02,0.55
2022-12-08 5:54:56.8240,-0.26,-0.55,0.85,-0.04,-0.01,0.53
2022-12-08 5:54:56.8340,-0.1,-0.53,0.62,-0.13,0.0,0.47
2022-12-08 5:54:56.8440,0.05,-0.48,0.47,-0.21,-0.01,0.38
2022-12-08 5:54:56.8540,0.09,-0.42,0.38,-0.26,-0.02,0.27
2022-12-08 5:54:56.8630,0.09,-0.38,0.28,-0.29,-0.03,0.18
2022-12-08 5:54:56.8740,0.05,-0.4,0.18,-0.3,-0.02,0.13
2022-12-08 5:54:56.8830,-0.04,-0.37,0.02,-0.31,-0.01,0.1
2022-12-08 5:54:56.8940,-0.15,-0.35,-0.19,-0.33,-0.02,0.11
2022-12-08 5:54:56.9030,-0.25,-0.35,-0.31,-0.33,-0.05,0.14
2022-12-08 5:54:56.9140,-0.33,-0.34,-0.39,-0.31,-0.07,0.17
2022-12-08 5:54:56.9240,-0.36,-0.4,-0.49,-0.27,-0.11,0.19
2022-12-08 5:54:56.9330,-0.41,-0.48,-0.44,-0.21,-0.13,0.22
2022-12-08 5:54:56.9430,-0.43,-0.47,-0.51,-0.14,-0.11,0.24
2022-12-08 5:54:56.9530,-0.43,-0.45,-0.73,-0.08,-0.06,0.26
2022-12-08 5:54:56.9630,-0.4,-0.36,-0.95,-0.03,0.0,0.27
2022-12-08 5:54:56.9730,-0.34,-0.31,-1.24,-0.01,0.1,0.26
2022-12-08 5:54:56.9830,-0.26,-0.23,-1.57,-0.01,0.17,0.22
2022-12-08 5:54:56.9930,-0.14,-0.1,-1.8,-0.01,0.22,0.17
2022-12-08 5:54:57.0030,-0.07,0.01,-1.98,0.01,0.24,0.11
2022-12-08 5:54:57.0130,-0.18,0.0,-2.39,0.03,0.2,0.07
2022-12-08 5:54:57.0230,-0.18,0.0,-2.39,0.03,0.11,0.05
2022-12-08 5:54:57.0330,-0.51,0.19,-2.3,0.01,-0.02,0.04
2022-12-08 5:54:57.0430,-0.51,0.19,-2.3,0.02,-0.15,0.03
2022-12-08 5:54:57.0530,-0.7,0.14,-2.19,0.06,-0.22,0.05
2022-12-08 5:54:57.0630,-0.77,0.12,-2.14,0.1,-0.23,0.09
2022-12-08 5:54:57.0730,-0.73,0.13,-2.1,0.11,-0.18,0.12
2022-12-08 5:54:57.0830,-0.63,0.21,-2.03,0.09,-0.1,0.12
2022-12-08 5:54:57.0920,-0.54,0.32,-1.94,0.06,-0.04,0.09
2022-12-08 5:54:57.1030,-0.39,0.3,-1.71,0.01,0.02,0.05
2022-12-08 5:54:57.1120,-0.24,0.28,-1.61,-0.05,0.03,-0.01
2022-12-08 5:54:57.1220,-0.14,0.25,-1.32,-0.11,-0.02,-0.08
