time,ax,ay,az,wx,wy,wz
2022-12-08 20:8:04.9800,-0.51,0.43,-0.81,-0.23,0.31,-0.04
2022-12-08 20:8:04.9870,-0.87,0.56,-0.44,-0.13,0.34,0.05
2022-12-08 20:8:04.9970,-0.87,0.56,-0.44,-0.09,0.17,0.12
2022-12-08 20:8:05.0080,-1.23,0.96,0.23,-0.07,0.01,0.17
2022-12-08 20:8:05.0170,-1.23,0.96,0.23,-0.01,-0.04,0.17
2022-12-08 20:8:05.0270,-0.85,0.86,-0.05,0.09,-0.05,0.15
2022-12-08 20:8:05.0370,-0.66,0.88,0.11,0.21,-0.04,0.14
2022-12-08 20:8:05.0470,-0.66,0.88,0.11,0.29,-0.05,0.12
2022-12-08 20:8:05.0570,-0.65,0.91,0.18,0.3,-0.02,0.11
2022-12-08 20:8:05.0670,-0.61,0.93,0.08,0.26,0.02,0.11
2022-12-08 20:8:05.0770,-0.6,0.93,-0.09,0.17,0.03,0.13
2022-12-08 20:8:05.0870,-0.56,0.84,0.02,0.1,-0.0,0.15
2022-12-08 20:8:05.0970,-0.56,0.84,0.02,0.06,-0.06,0.16
2022-12-08 20:8:05.1070,-0.65,0.75,0.18,0.07,-0.13,0.18
2022-12-08 20:8:05.1160,-0.71,0.65,0.41,0.11,-0.2,0.2
2022-12-08 20:8:05.1270,-0.66,0.61,0.53,0.12,-0.23,0.21
2022-12-08 20:8:05.1360,-0.37,0.73,0.44,0.07,-0.23,0.19
2022-12-08 20:8:05.1470,-0.37,0.73,0.44,-0.03,-0.16,0.16
2022-12-08 20:8:05.1570,-0.22,0.88,0.42,-0.14,-0.02,0.13
2022-12-08 20:8:05.1660,-0.05,1.07,0.35,-0.19,0.17,0.1
2022-12-08 20:8:05.1760,0.12,1.09,0.37,-0.18,0.38,0.06
2022-12-08 20:8:05.1860,0.14,1.04,0.35,-0.12,0.53,0.04
2022-12-08 20:8:05.1960,0.03,0.98,0.34,-0.05,0.57,0.02
2022-12-08 20:8:05.2060,-0.22,0.9,0.47,0.02,0.56,0.03
2022-12-08 20:8:05.2160,-0.48,0.9,0.42,0.05,0.52,0.05
2022-12-08 20:8:05.2260,-0.61,0.91,0.25,0.03,0.44,0.06
2022-12-08 20:8:05.2360,-0.67,1.02,0.21,-0.02,0.34,0.06
2022-12-08 20:8:05.2460,-0.69,1.06,0.33,-0.09,0.23,0.04
2022-12-08 20:8:05.2560,-0.66,1.13,0.39,-0.13,0.09,0.01
2022-12-08 20:8:05.2660,-0.65,1.1,0.52,-0.13,-0.01,-0.0
2022-12-08 20:8:05.2760,-0.64,1.11,0.56,-0.12,-0.08,-0.02
2022-12-08 20:8:05.2860,-0.6,1.1,0.5,-0.07,-0.1,-0.02
2022-12-08 20:8:05.2960,-0.55,1.15,0.47,-0.04,-0.07,-0.02
2022-12-08 20:8:05.3060,-0.43,1.21,0.35,-0.04,-0.02,-0.03
2022-12-08 20:8:05.3160,-0.31,1.2,0.28,-0.01,0.08,-0.05
2022-12-08 20:8:05.3260,-0.07,1.23,0.5,0.06,0.19,-0.08
2022-12-08 20:8:05.3360,-0.022639395743608477,0.98,0.66,0.12,0.23,-0.12
2022-12-08 20:8:05.3460,-0.03,0.98,0.66,0.16,0.21,-0.15
2022-12-08 20:8:05.3560,-0.19,0.87,0.79,0.16,0.2,-0.15
2022-12-08 20:8:05.3650,-0.38,0.91,0.7,0.13,0.21,-0.12
2022-12-08 20:8:05.3750,-0.43,0.95,0.44,0.08,0.27,-0.06
2022-12-08 20:8:05.3850,-0.30225920509546994,1.13,-0.19,-0.0,0.35,0.02
2022-12-08 20:8:05.3950,-0.31,1.13,-0.19,-0.1,0.43,0.09
2022-12-08 20:8:05.4050,-0.19,1.21,-0.45,-0.19,0.47,0.14
2022-12-08 20:8:05.4150,-0.11,1.25,-0.61,-0.25,0.42,0.17
2022-12-08 20:8:05.4250,-0.18,1.19,-0.62,-0.25,0.29,0.17
2022-12-08 20:8:05.4350,-0.37,1.15,-0.45,-0.18,0.14,0.18
2022-12-08 20:8:05.4450,-0.47,1.34,-0.47,-0.12,0.06,0.18
2022-12-08 20:8:05.4550,-0.38,1.46,-0.68,-0.08,0.05,0.17
2022-12-08 20:8:05.4650,-0.19,1.53,-1.04,-0.08,0.07,0.15
2022-12-08 20:8:05.4750,-0.1,1.68,-1.3,-0.12,0.07,0.13
2022-12-08 20:8:05.4850,-0.07,1.76,-1.27,-0.17,0.03,0.1
2022-12-08 20:8:05.4950,-0.08,1.67,-1.19,-0.18,-0.02,0.07
2022-12-08 20:8:05.5050,-0.13,1.55,-1.13,-0.15,-0.12,0.05
2022-12-08 20:8:05.5150,-0.25,1.49,-0.87,-0.09,-0.21,0.03
2022-12-08 20:8:05.5250,-0.34,1.48,-0.71,-0.02,-0.24,0.03
2022-12-08 20:8:05.5350,-0.28,1.49,-0.85,0.04,-0.2,0.04
2022-12-08 20:8:05.5450,-0.11,1.49,-1.05,0.07,-0.12,0.07
2022-12-08 20:8:05.5550,0.0,1.57,-1.2,0.06,-0.04,0.11
2022-12-08 20:8:05.5650,0.02,1.68,-1.3,0.04,0.01,0.15
2022-12-08 20:8:05.5740,0.0,1.73,-1.22,0.02,0.02,0.17
2022-12-08 20:8:05.5840,-0.02,1.7,-1.08,0.0,0.03,0.17
2022-12-08 20:8:05.5940,0.02,1.73,-0.93,0.01,0.04,0.15
2022-12-08 20:8:05.6040,0.09,1.78,-0.86,0.02,0.09,0.11
2022-12-08 20:8:05.6140,0.11,1.83,-0.89,0.04,0.17,0.06
2022-12-08 20:8:05.6240,0.1,1.89,-0.92,0.05,0.23,0.01
2022-12-08 20:8:05.6340,0.05,1.92,-0.91,0.05,0.21,-0.06
2022-12-08 20:8:05.6440,-0.32,1.87,-0.51,0.03,0.19,-0.12
2022-12-08 20:8:05.6540,-0.32,1.87,-0.51,0.01,0.17,-0.18
2022-12-08 20:8:05.6640,-0.49,1.87,-0.39,-0.03,0.14,-0.2
2022-12-08 20:8:05.6740,-0.53,1.82,0.09,-0.05,0.1,-0.19
2022-12-08 20:8:05.6840,-0.46,1.63,0.36,-0.01,0.05,-0.17
2022-12-08 20:8:05.6940,-0.46,1.63,0.36,0.05,-0.07,-0.16
2022-12-08 20:8:05.7040,-0.41,1.38,0.68,0.15,-0.26,-0.19
2022-12-08 20:8:05.7140,-0.52,1.05,1.15,0.26,-0.46,-0.22
2022-12-08 20:8:05.7240,-0.83,0.85,1.46,0.4,-0.55,-0.18
2022-12-08 20:8:05.7340,-1.27,0.91,1.37,0.53,-0.49,-0.07
2022-12-08 20:8:05.7440,-1.56,0.95,0.99,0.57,-0.33,0.05
2022-12-08 20:8:05.7530,-1.7,0.83,0.57,0.48,-0.18,0.18
2022-12-08 20:8:05.7630,-1.82,0.93,0.47,0.24,-0.1,0.26
2022-12-08 20:8:05.7740,-1.84,1.0,0.58,-0.1,-0.1,0.27
2022-12-08 20:8:05.7830,-1.66,0.84,0.95,-0.38,-0.17,0.24
2022-12-08 20:8:05.7930,-1.51,0.61,1.58,-0.48,-0.24,0.17
2022-12-08 20:8:05.8040,-1.55,0.41,2.26,-0.39,-0.31,0.12
2022-12-08 20:8:05.8130,-1.62,0.26,2.94,-0.13,-0.29,0.11
2022-12-08 20:8:05.8230,-1.58,0.04,3.2,0.21,-0.19,0.14
2022-12-08 20:8:05.8330,-1.47,-0.18,3.03,0.49,-0.1,0.26
2022-12-08 20:8:05.8430,-1.37,-0.29,2.86,0.64,0.01,0.4
2022-12-08 20:8:05.8530,-1.15,-0.03,1.76,0.65,0.12,0.54
2022-12-08 20:8:05.8630,-0.99,0.14,1.24,0.53,0.21,0.65
2022-12-08 20:8:05.8730,-0.99,0.14,1.24,0.37,0.36,0.73
2022-12-08 20:8:05.8830,-0.84,0.32,0.51,0.24,0.52,0.75
2022-12-08 20:8:05.8930,-0.82,0.46,-0.15,0.14,0.57,0.72
2022-12-08 20:8:05.9030,-0.88,0.6,-0.24,0.09,0.53,0.65
2022-12-08 20:8:05.9130,-0.98,0.77,-0.09,0.07,0.5,0.55
2022-12-08 20:8:05.9230,-0.99,0.92,-0.36,0.07,0.47,0.44
2022-12-08 20:8:05.9330,-0.95,0.92,-0.69,0.08,0.4,0.34
2022-12-08 20:8:05.9430,-0.94,0.99,-0.85,0.07,0.29,0.26
2022-12-08 20:8:05.9530,-0.94,1.11,-0.93,0.07,0.16,0.19
2022-12-08 20:8:05.9630,-0.92,1.16,-1.07,0.05,0.02,0.09
2022-12-08 20:8:05.9730,-0.8,1.11,-1.25,0.01,-0.14,-0.02
2022-12-08 20:8:05.9830,-0.77,0.96,-1.2,-0.03,-0.3,-0.14
2022-12-08 20:8:05.9930,-0.8,0.84,-1.13,-0.06,-0.46,-0.25
2022-12-08 20:8:06.0020,-1.02,0.4,-0.68,-0.01,-0.55,-0.28
2022-12-08 20:8:06.0120,-1.02,0.4,-0.68,0.08,-0.55,-0.24
2022-12-08 20:8:06.0220,-1.04,0.35,-0.76,0.18,-0.49,-0.15
2022-12-08 20:8:06.0320,-1.0,0.27,-0.85,0.26,-0.37,-0.03
2022-12-08 20:8:06.0420,-0.92,0.3,-1.1,0.31,-0.24,0.08
2022-12-08 20:8:06.0520,-0.8,0.33,-1.42,0.33,-0.16,0.15
2022-12-08 20:8:06.0620,-0.7,0.32,-1.61,0.3,-0.18,0.18
2022-12-08 20:8:06.0720,-0.74,0.44,-1.63,0.27,-0.22,0.19
2022-12-08 20:8:06.0820,-0.75,0.6,-1.73,0.24,-0.24,0.15
2022-12-08 20:8:06.0920,-0.66,0.59,-2.0,0.19,-0.29,0.1
2022-12-08 20:8:06.1020,-0.61,0.6,-2.01,0.13,-0.33,0.04
2022-12-08 20:8:06.1120,-0.66,0.67,-1.92,0.06,-0.3,-0.01
2022-12-08 20:8:06.1220,-0.69,0.69,-1.98,0.0,-0.25,-0.01
2022-12-08 20:8:06.1320,-0.7,0.72,-1.9,-0.04,-0.19,0.0
2022-12-08 20:8:06.1420,-0.69,0.74,-1.74,-0.04,-0.13,0.03
2022-12-08 20:8:06.1520,-0.73,0.7,-1.54,-0.04,-0.1,0.04
2022-12-08 20:8:06.1620,-0.78,0.67,-1.28,-0.04,-0.09,0.05
2022-12-08 20:8:06.1720,-0.81,0.66,-1.04,-0.05,-0.11,0.03
2022-12-08 20:8:06.1820,-0.84,0.62,-0.8,-0.05,-0.13,0.0
2022-12-08 20:8:06.1920,-0.85,0.6,-0.53,-0.07,-0.16,-0.05
2022-12-08 20:8:06.2020,-0.9,0.53,-0.28,-0.09,-0.2,-0.1
2022-12-08 20:8:06.2120,-1.0,0.52,0.07,-0.08,-0.23,-0.12
2022-12-08 20:8:06.2210,-1.03,0.48,0.39,-0.03,-0.24,-0.11
2022-12-08 20:8:06.2310,-1.0,0.26,0.73,0.04,-0.24,-0.09
2022-12-08 20:8:06.2420,-1.0,0.26,0.73,0.11,-0.22,-0.05
2022-12-08 20:8:06.2510,-0.99,0.2,0.89,0.17,-0.21,-0.01
2022-12-08 20:8:06.2610,-0.88,0.16,1.04,0.19,-0.16,0.01
2022-12-08 20:8:06.2710,-0.65,0.15,1.08,0.16,-0.09,-0.0
2022-12-08 20:8:06.2810,-0.43,0.14,1.04,0.1,-0.02,-0.04
2022-12-08 20:8:06.2910,-0.23,0.12,1.04,0.04,0.02,-0.08
2022-12-08 20:8:06.3010,-0.14,0.03,1.07,0.0,0.03,-0.12
2022-12-08 20:8:06.3110,-0.25,0.03,1.18,0.01,0.06,-0.12
2022-12-08 20:8:06.3210,-0.43,0.16,1.1,0.04,0.09,-0.09
2022-12-08 20:8:06.3310,-0.46,0.18,0.93,0.04,0.07,-0.04
2022-12-08 20:8:06.3410,-0.39,0.19,0.81,-0.03,-0.0,-0.0
2022-12-08 20:8:06.3510,-0.38,0.36,0.81,-0.15,-0.07,-0.02
2022-12-08 20:8:06.3610,-0.27,0.5,0.83,-0.27,-0.1,-0.13
2022-12-08 20:8:06.3710,-0.06,0.5,0.87,-0.38,-0.12,-0.28
2022-12-08 20:8:06.3810,0.07,0.42,1.09,-0.43,-0.09,-0.42
2022-12-08 20:8:06.3910,0.13,0.35,1.35,-0.4,0.02,-0.52
2022-12-08 20:8:06.4010,0.11,0.24,1.35,-0.3,0.16,-0.54
2022-12-08 20:8:06.4110,0.02,0.12,1.29,-0.17,0.29,-0.48
2022-12-08 20:8:06.4210,-0.14,0.08,1.17,-0.05,0.4,-0.38
2022-12-08 20:8:06.4310,-0.32,0.07,0.95,0.03,0.47,-0.26
2022-12-08 20:8:06.4400,-0.47,0.13,0.63,0.05,0.5,-0.15
2022-12-08 20:8:06.4500,-0.53,0.3,0.37,0.04,0.51,-0.04
2022-12-08 20:8:06.4600,-0.48,0.46,0.08,0.03,0.48,0.02
2022-12-08 20:8:06.4700,-0.29,0.48,-0.09,0.06,0.42,0.05
2022-12-08 20:8:06.4800,-0.29,0.48,-0.09,0.1,0.34,0.03
2022-12-08 20:8:06.4900,-0.08,0.47,-0.15,0.12,0.23,-0.03
2022-12-08 20:8:06.5000,0.16,0.36,-0.16,0.11,0.08,-0.1
2022-12-08 20:8:06.5100,0.3,0.36,-0.05,0.08,-0.05,-0.2
2022-12-08 20:8:06.5200,0.39,0.34,-0.11,0.03,-0.13,-0.28
2022-12-08 20:8:06.5300,0.44,0.28,-0.31,-0.04,-0.16,-0.33
2022-12-08 20:8:06.5400,0.48,0.25,-0.43,-0.1,-0.15,-0.33
2022-12-08 20:8:06.5500,0.5,0.19,-0.49,-0.11,-0.09,-0.31
2022-12-08 20:8:06.5600,0.44,0.15,-0.55,-0.09,-0.01,-0.27
2022-12-08 20:8:06.5700,0.47,0.13,-0.64,-0.04,0.06,-0.22
2022-12-08 20:8:06.5800,0.49,0.13,-0.69,0.01,0.09,-0.18
2022-12-08 20:8:06.5900,0.25,0.2,-1.05,0.08,0.13,-0.16
2022-12-08 20:8:06.6000,0.25,0.2,-1.05,0.12,0.15,-0.14
2022-12-08 20:8:06.6100,0.19,0.2,-1.29,0.11,0.13,-0.14
2022-12-08 20:8:06.6200,0.09,0.37,-1.47,0.06,0.09,-0.19
2022-12-08 20:8:06.6300,0.09,0.37,-1.47,-0.0,0.05,-0.26
2022-12-08 20:8:06.6390,0.07,0.41,-1.59,-0.05,-0.04,-0.32
2022-12-08 20:8:06.6490,0.01,0.43,-1.49,-0.05,-0.15,-0.34
2022-12-08 20:8:06.6600,-0.11,0.46,-1.19,-0.0,-0.22,-0.33
2022-12-08 20:8:06.6690,-0.18,0.43,-1.11,0.07,-0.22,-0.3
2022-12-08 20:8:06.6790,-0.18,0.28,-1.18,0.11,-0.21,-0.23
2022-12-08 20:8:06.6890,-0.24,0.35,-1.08,0.12,-0.17,-0.16
2022-12-08 20:8:06.6990,-0.23,0.38,-1.12,0.09,-0.12,-0.11
2022-12-08 20:8:06.7090,-0.21,0.34,-1.2,0.04,-0.1,-0.09
2022-12-08 20:8:06.7190,-0.24,0.39,-1.03,-0.01,-0.05,-0.08
2022-12-08 20:8:06.7290,-0.25,0.45,-0.96,-0.05,0.03,-0.07
2022-12-08 20:8:06.7390,-0.19,0.45,-1.03,-0.09,0.08,-0.05
2022-12-08 20:8:06.7490,-0.17,0.46,-0.88,-0.11,0.05,-0.04
2022-12-08 20:8:06.7590,-0.28,0.38,-0.66,-0.07,-0.05,-0.03
2022-12-08 20:8:06.7690,-0.48,0.24,-0.27,0.03,-0.19,-0.0
2022-12-08 20:8:06.7790,-0.61,0.12,-0.01,0.16,-0.31,0.04
2022-12-08 20:8:06.7890,-0.67,0.01,0.12,0.28,-0.37,0.1
2022-12-08 20:8:06.7990,-0.75,0.03,0.19,0.37,-0.34,0.17
2022-12-08 20:8:06.8090,-0.78,0.01,0.06,0.43,-0.24,0.24
2022-12-08 20:8:06.8190,-0.74,-0.03,-0.08,0.43,-0.13,0.3
2022-12-08 20:8:06.8290,-0.7,0.08,-0.08,0.38,-0.04,0.36
2022-12-08 20:8:06.8390,-0.64,0.24,-0.13,0.27,0.03,0.36
2022-12-08 20:8:06.8490,-0.51,0.29,-0.19,0.14,0.08,0.33
2022-12-08 20:8:06.8590,-0.39,0.4,-0.16,0.03,0.11,0.25
2022-12-08 20:8:06.8690,-0.32,0.44,-0.1,-0.06,0.04,0.17
2022-12-08 20:8:06.8830,-0.49,0.29,0.76,-0.09,-0.08,0.1
2022-12-08 20:8:06.8880,-0.49,0.29,0.76,-0.06,-0.19,0.07
2022-12-08 20:8:06.8980,-0.52,0.18,1.1,0.02,-0.22,0.07
2022-12-08 20:8:06.9080,-0.49,0.06,1.21,0.1,-0.15,0.1
2022-12-08 20:8:06.9180,-0.53,-0.02,1.05,0.13,-0.1,0.16
2022-12-08 20:8:06.9280,-0.51,0.12,1.12,0.1,-0.02,0.21
2022-12-08 20:8:06.9380,-0.46,0.27,1.03,-0.02,0.06,0.22
2022-12-08 20:8:06.9480,-0.33,0.27,0.89,-0.23,0.08,0.17
2022-12-08 20:8:06.9580,-0.17,0.28,1.12,-0.46,0.05,0.07
2022-12-08 20:8:06.9680,0.04,-0.07,2.02,-0.63,-0.07,-0.05
2022-12-08 20:8:06.9780,0.04,-0.07,2.02,-0.67,-0.18,-0.16
2022-12-08 20:8:06.9880,-0.03,-0.36,2.45,-0.56,-0.26,-0.22
2022-12-08 20:8:06.9980,-0.2,-0.6,2.57,-0.37,-0.29,-0.23
2022-12-08 20:8:07.0080,-0.39,-0.75,2.48,-0.18,-0.22,-0.17
2022-12-08 20:8:07.0170,-0.49,-0.7,1.91,-0.04,-0.07,-0.04
2022-12-08 20:8:07.0270,-0.55,-0.39,0.4,0.03,0.13,0.12
2022-12-08 20:8:07.0370,-0.55,-0.39,0.4,-0.01,0.3,0.26
2022-12-08 20:8:07.0480,-0.62,-0.32,-0.05,-0.08,0.41,0.34
2022-12-08 20:8:07.0570,-0.71,-0.15,-0.33,-0.16,0.42,0.38
2022-12-08 20:8:07.0670,-0.7,-0.06,-0.44,-0.24,0.34,0.35
2022-12-08 20:8:07.0770,-0.64,0.01,-0.33,-0.29,0.21,0.28
2022-12-08 20:8:07.0870,-0.61,0.01,-0.15,-0.29,0.07,0.17
2022-12-08 20:8:07.0970,-0.63,-0.03,-0.06,-0.25,-0.04,0.08
2022-12-08 20:8:07.1070,-0.65,-0.08,-0.11,-0.21,-0.11,0.03
2022-12-08 20:8:07.1170,-0.65,-0.08,-0.11,-0.18,-0.15,0.03
2022-12-08 20:8:07.1270,-0.59,-0.1,-0.23,-0.15,-0.17,0.05
2022-12-08 20:8:07.1370,-0.58,-0.18,-0.34,-0.11,-0.2,0.09
2022-12-08 20:8:07.1470,-0.6,-0.21,-0.38,-0.09,-0.21,0.13
2022-12-08 20:8:07.1570,-0.43,-0.19,-0.61,-0.06,-0.22,0.16
2022-12-08 20:8:07.1670,-0.32,-0.13,-0.76,-0.03,-0.2,0.18
2022-12-08 20:8:07.1820,-0.27,-0.05,-0.98,0.01,-0.16,0.17
Time,-0.23,0.04,-1.21,0.04,-0.08,0.16
2022-12-08 20:8:07.1970,-0.22,0.16,-1.54,0.06,0.02,0.13
2022-12-08 20:8:07.2070,-0.2,0.26,-1.78,0.05,0.11,0.1
2022-12-08 20:8:07.2160,-0.21,0.34,-1.92,0.0,0.18,0.05
2022-12-08 20:8:07.2320,-0.28,0.35,-2.01,-0.06,0.22,-0.02
2022-12-08 20:8:07.2360,-0.28,0.35,-2.01,-0.09,0.22,-0.08
2022-12-08 20:8:07.2460,-0.52,0.35,-1.9,-0.1,0.15,-0.12
2022-12-08 20:8:07.2560,-0.68,0.32,-1.65,-0.09,0.03,-0.14
2022-12-08 20:8:07.2660,-0.68,0.32,-1.65,-0.04,-0.05,-0.12
2022-12-08 20:8:07.2770,-0.78,0.3,-1.59,0.03,-0.07,-0.08
2022-12-08 20:8:07.2870,-0.72,0.3,-1.56,0.07,-0.09,-0.02
2022-12-08 20:8:07.2960,-0.78,0.41,-1.55,0.1,-0.08,0.03
2022-12-08 20:8:07.3060,-0.78,0.45,-1.53,0.1,-0.08,0.05
2022-12-08 20:8:07.3190,-0.78,0.45,-1.53,0.11,-0.05,0.06
2022-12-08 20:8:07.3260,-0.73,0.63,-1.35,0.1,-0.01,0.04
2022-12-08 20:8:07.3360,-0.73,0.63,-1.35,0.1,0.04,0.0
2022-12-08 20:8:07.3460,-0.66,0.65,-1.23,0.1,0.05,-0.04
2022-12-08 20:8:07.3560,-0.64,0.65,-1.04,0.11,0.01,-0.08
2022-12-08 20:8:07.3660,-0.72,0.62,-0.71,0.14,-0.08,-0.11
2022-12-08 20:8:07.3760,-0.84,0.56,-0.37,0.18,-0.16,-0.12
2022-12-08 20:8:07.3860,-0.89,0.49,-0.09,0.25,-0.2,-0.11
2022-12-08 20:8:07.3960,-0.87,0.44,0.12,0.31,-0.2,-0.09
2022-12-08 20:8:07.4060,-0.81,0.38,0.27,0.33,-0.18,-0.06
2022-12-08 20:8:07.4150,-0.72,0.3,0.37,0.29,-0.19,-0.05
2022-12-08 20:8:07.4260,-0.51,0.03,0.78,0.21,-0.25,-0.07
2022-12-08 20:8:07.4360,-0.41,-0.11,1.13,0.12,-0.33,-0.09
2022-12-08 20:8:07.4460,-0.31,-0.29,1.45,0.08,-0.36,-0.11
2022-12-08 20:8:07.4550,-0.31,-0.29,1.45,0.1,-0.33,-0.13
2022-12-08 20:8:07.4650,-0.36,-0.34,1.79,0.17,-0.2,-0.13
2022-12-08 20:8:07.4750,-0.36,-0.34,1.79,0.29,0.05,-0.09
2022-12-08 20:8:07.4850,-0.7,0.01,1.58,0.4,0.3,-0.01
2022-12-08 20:8:07.4950,-0.92,0.29,1.27,0.44,0.43,0.05
2022-12-08 20:8:07.5050,-0.98,0.28,1.09,0.4,0.42,0.09
2022-12-08 20:8:07.5150,-1.06,0.38,0.96,0.29,0.27,0.08
2022-12-08 20:8:07.5250,-1.0,0.34,0.95,0.12,-0.0,0.01
2022-12-08 20:8:07.5350,-0.67,0.06,1.14,-0.05,-0.29,-0.11
2022-12-08 20:8:07.5450,-0.3,-0.28,1.52,-0.14,-0.44,-0.23
2022-12-08 20:8:07.5550,-0.14,-0.37,1.68,-0.1,-0.38,-0.32
2022-12-08 20:8:07.5650,-0.07,-0.41,1.76,0.05,-0.14,-0.33
2022-12-08 20:8:07.5750,-0.1,-0.41,1.7,0.24,0.19,-0.26
2022-12-08 20:8:07.5850,-0.2,-0.33,1.4,0.35,0.47,-0.16
2022-12-08 20:8:07.5950,-0.35,-0.29,0.98,0.36,0.6,-0.05
2022-12-08 20:8:07.6050,-0.56,-0.28,0.68,0.3,0.59,0.05
2022-12-08 20:8:07.6150,-0.7,-0.14,0.38,0.19,0.44,0.1
2022-12-08 20:8:07.6250,-0.64,-0.2,0.26,0.07,0.21,0.11
2022-12-08 20:8:07.6350,-0.47,-0.22,0.42,-0.02,-0.0,0.07
2022-12-08 20:8:07.6450,-0.23,-0.18,0.48,-0.09,-0.19,-0.02
2022-12-08 20:8:07.6550,0.02,-0.27,0.67,-0.14,-0.33,-0.14
2022-12-08 20:8:07.6650,0.18,-0.27,0.86,-0.17,-0.4,-0.26
2022-12-08 20:8:07.6750,0.24,-0.3,0.97,-0.18,-0.38,-0.36
2022-12-08 20:8:07.6850,0.27,-0.38,0.93,-0.18,-0.28,-0.39
2022-12-08 20:8:07.6950,0.28,-0.39,0.73,-0.17,-0.14,-0.37
2022-12-08 20:8:07.7040,0.28,-0.4,0.47,-0.14,0.03,-0.29
2022-12-08 20:8:07.7140,0.25,-0.23,-0.29,-0.11,0.18,-0.2
2022-12-08 20:8:07.7240,0.25,-0.23,-0.29,-0.09,0.28,-0.14
2022-12-08 20:8:07.7340,0.17,-0.15,-0.63,-0.09,0.32,-0.11
2022-12-08 20:8:07.7440,0.09,0.04,-0.91,-0.11,0.32,-0.12
2022-12-08 20:8:07.7540,0.05,0.15,-1.19,-0.11,0.29,-0.15
2022-12-08 20:8:07.7640,-0.02,0.25,-1.39,-0.1,0.23,-0.19
2022-12-08 20:8:07.7740,-0.14,0.4,-1.43,-0.06,0.2,-0.2
2022-12-08 20:8:07.7840,-0.27,0.53,-1.67,0.0,0.18,-0.2
2022-12-08 20:8:07.7940,-0.27,0.53,-1.67,0.07,0.17,-0.16
2022-12-08 20:8:07.8040,-0.34,0.59,-1.79,0.15,0.15,-0.11
2022-12-08 20:8:07.8140,-0.4,0.61,-1.89,0.22,0.06,-0.06
2022-12-08 20:8:07.8240,-0.51,0.53,-1.78,0.31,-0.11,0.02
2022-12-08 20:8:07.8340,-0.6,0.5,-1.51,0.42,-0.26,0.11
2022-12-08 20:8:07.8440,-0.53,0.41,-1.58,0.52,-0.41,0.2
2022-12-08 20:8:07.8540,-0.48,0.29,-1.5,0.58,-0.48,0.29
2022-12-08 20:8:07.8640,-0.54,0.44,-1.46,0.58,-0.42,0.36
2022-12-08 20:8:07.8730,-0.36,0.63,-1.72,0.52,-0.23,0.43
2022-12-08 20:8:07.8840,0.04,0.75,-2.03,0.41,-0.04,0.49
2022-12-08 20:8:07.8940,0.26,0.98,-2.14,0.3,0.1,0.5
2022-12-08 20:8:07.9030,0.27,1.06,-2.0,0.25,0.11,0.45
2022-12-08 20:8:07.9130,0.13,1.01,-1.64,0.27,0.04,0.35
2022-12-08 20:8:07.9230,-0.04,1.0,-1.34,0.28,-0.08,0.24
2022-12-08 20:8:07.9330,-0.17,0.9,-0.94,0.28,-0.24,0.12
2022-12-08 20:8:07.9430,-0.17,0.9,-0.94,0.3,-0.33,0.02
2022-12-08 20:8:07.9530,-0.3,0.87,-0.9,0.31,-0.37,-0.06
2022-12-08 20:8:07.9630,-0.36,0.68,-0.9,0.28,-0.39,-0.12
2022-12-08 20:8:07.9730,-0.39,0.56,-0.66,0.23,-0.34,-0.15
2022-12-08 20:8:07.9830,-0.43,0.46,-0.55,0.16,-0.23,-0.16
2022-12-08 20:8:07.9930,-0.32,0.2,-0.32,0.08,-0.09,-0.15
2022-12-08 20:8:08.0030,-0.32,0.2,-0.32,-0.03,0.07,-0.14
2022-12-08 20:8:08.0130,-0.26,0.05,-0.08,-0.13,0.2,-0.14
2022-12-08 20:8:08.0230,-0.33,-0.11,0.18,-0.18,0.24,-0.15
2022-12-08 20:8:08.0330,-0.45,-0.34,0.68,-0.17,0.16,-0.12
2022-12-08 20:8:08.0430,-0.64,-0.54,1.31,-0.05,0.06,-0.05
2022-12-08 20:8:08.0530,-1.13,-0.44,1.44,0.14,0.07,0.06
2022-12-08 20:8:08.0630,-1.35,-0.18,1.17,0.31,0.14,0.19
2022-12-08 20:8:08.0740,-1.35,-0.18,1.17,0.37,0.23,0.28
2022-12-08 20:8:08.0830,-1.5,0.04,0.94,0.33,0.31,0.33
2022-12-08 20:8:08.0930,-1.53,0.17,0.69,0.17,0.34,0.36
2022-12-08 20:8:08.1020,-1.25,0.25,0.72,-0.09,0.28,0.34
2022-12-08 20:8:08.1130,-1.04,0.18,1.12,-0.4,0.13,0.29
2022-12-08 20:8:08.1220,-1.04,0.18,1.12,-0.68,-0.05,0.18
2022-12-08 20:8:08.1320,-0.78,-0.07,1.62,-0.83,-0.24,0.04
2022-12-08 20:8:08.1430,-0.53,-0.39,2.24,-0.83,-0.38,-0.08
2022-12-08 20:8:08.1520,-0.46,-0.8,3.14,-0.69,-0.45,-0.16
2022-12-08 20:8:08.1620,-0.46,-0.8,3.14,-0.44,-0.38,-0.14
2022-12-08 20:8:08.1720,-0.57,-0.78,3.12,-0.19,-0.16,-0.05
2022-12-08 20:8:08.1820,-0.67,-0.68,2.6,-0.02,0.15,0.1
2022-12-08 20:8:08.1920,-0.69,-0.53,1.83,0.02,0.46,0.25
2022-12-08 20:8:08.2020,-0.8,-0.11,0.55,-0.07,0.63,0.33
2022-12-08 20:8:08.2120,-0.8,-0.11,0.55,-0.2,0.66,0.35
2022-12-08 20:8:08.2220,-0.89,0.0,0.42,-0.3,0.57,0.28
2022-12-08 20:8:08.2320,-1.11,-0.03,0.59,-0.32,0.36,0.17
2022-12-08 20:8:08.2420,-1.11,-0.03,0.59,-0.27,0.11,0.06
2022-12-08 20:8:08.2520,-1.05,-0.05,0.84,-0.17,-0.1,-0.04
2022-12-08 20:8:08.2620,-1.05,-0.05,0.84,-0.06,-0.22,-0.11
2022-12-08 20:8:08.2720,-1.06,-0.21,0.56,0.02,-0.3,-0.15
2022-12-08 20:8:08.2820,-1.06,-0.21,0.56,0.09,-0.34,-0.15
2022-12-08 20:8:08.2920,-1.12,-0.33,0.43,0.13,-0.36,-0.11
Time,-1.13,-0.5,0.15,0.17,-0.33,-0.04
2022-12-08 20:8:08.3110,-1.03,-0.54,0.0,0.21,-0.26,0.06
2022-12-08 20:8:08.3210,-0.88,-0.57,-0.18,0.24,-0.16,0.16
2022-12-08 20:8:08.3310,-0.88,-0.57,-0.18,0.26,-0.06,0.22
2022-12-08 20:8:08.3420,-0.76,-0.53,-0.33,0.27,0.03,0.23
2022-12-08 20:8:08.3510,-0.59,-0.4,-0.71,0.28,0.1,0.23
2022-12-08 20:8:08.3610,-0.59,-0.4,-0.71,0.29,0.15,0.21
2022-12-08 20:8:08.3710,-0.52,-0.2,-1.04,0.31,0.17,0.2
2022-12-08 20:8:08.3810,-0.52,-0.2,-1.04,0.33,0.2,0.17
2022-12-08 20:8:08.3910,-0.5,-0.08,-1.53,0.34,0.2,0.14
2022-12-08 20:8:08.4010,-0.47,0.01,-1.69,0.35,0.19,0.11
2022-12-08 20:8:08.4110,-0.43,0.01,-1.86,0.35,0.17,0.06
2022-12-08 20:8:08.4210,-0.43,0.01,-1.86,0.33,0.14,0.03
2022-12-08 20:8:08.4310,-0.48,0.1,-1.92,0.3,0.11,0.01
2022-12-08 20:8:08.4410,-0.54,0.21,-1.99,0.28,0.1,0.01
2022-12-08 20:8:08.4510,-0.57,0.25,-2.06,0.25,0.13,0.02
2022-12-08 20:8:08.4610,-0.61,0.35,-2.081829797029495,0.22,0.16,0.03
2022-12-08 20:8:08.4720,-0.6823590300232172,0.48,-1.88,0.18,0.16,0.03
2022-12-08 20:8:08.4810,-0.69,0.48,-1.88,0.15,0.16,0.03
2022-12-08 20:8:08.4910,-0.71,0.54,-1.72,0.16,0.15,0.02
2022-12-08 20:8:08.5010,-0.7,0.53,-1.6,0.19,0.12,0.02
2022-12-08 20:8:08.5100,-0.62,0.53,-1.39,0.22,0.09,-0.0
2022-12-08 20:8:08.5200,-0.55,0.56,-1.24,0.25,0.07,-0.05
2022-12-08 20:8:08.5300,-0.52,0.53,-1.12,0.25,0.06,-0.09
2022-12-08 20:8:08.5400,-0.55,0.55,-1.03,0.25,0.06,-0.12
2022-12-08 20:8:08.5500,-0.62,0.57,-0.91,0.24,0.05,-0.11
2022-12-08 20:8:08.5600,-0.74,0.61,-0.77,0.24,0.02,-0.09
2022-12-08 20:8:08.5700,-0.87,0.6,-0.57,0.26,-0.05,-0.07
2022-12-08 20:8:08.5800,-1.01,0.54,-0.29,0.29,-0.12,-0.03
2022-12-08 20:8:08.5900,-1.06,0.5,-0.02,0.3,-0.15,-0.0
2022-12-08 20:8:08.6000,-0.92,0.41,0.06,0.26,-0.15,0.0
2022-12-08 20:8:08.6100,-0.67,0.34,0.12,0.13,-0.14,-0.03
2022-12-08 20:8:08.6200,-0.52,0.37,0.25,-0.01,-0.12,-0.08
2022-12-08 20:8:08.6300,-0.44,0.42,0.33,-0.13,-0.08,-0.15
2022-12-08 20:8:08.6400,-0.36,0.33,0.46,-0.18,-0.08,-0.18
2022-12-08 20:8:08.6500,-0.45,0.24,0.82,-0.13,-0.06,-0.18
2022-12-08 20:8:08.6600,-0.66,0.34,1.14,-0.04,-0.03,-0.13
2022-12-08 20:8:08.6700,-0.88,0.38,1.21,0.02,0.03,-0.04
2022-12-08 20:8:08.6800,-0.94,0.45,1.08,-0.02,0.1,0.02
2022-12-08 20:8:08.6900,-0.92,0.59,0.78,-0.21,0.14,0.06
2022-12-08 20:8:08.7000,-0.82,0.89,1.0357021057605744,-0.47,0.16,0.03
2022-12-08 20:8:08.7100,-0.48,1.05,1.03,-0.74,0.09,-0.07
2022-12-08 20:8:08.7200,-0.02,0.88,1.44,-0.94,-0.1,-0.25
2022-12-08 20:8:08.7300,0.29,0.57,2.22,-0.98,-0.29,-0.46
2022-12-08 20:8:08.7390,0.34,0.22,2.87,-0.84,-0.37,-0.6
2022-12-08 20:8:08.7490,0.28,-0.05,3.04,-0.56,-0.32,-0.63
2022-12-08 20:8:08.7590,0.1,-0.26,2.85,-0.22,-0.13,-0.53
2022-12-08 20:8:08.7690,-0.16,-0.23,2.25,0.08,0.17,-0.32
2022-12-08 20:8:08.7790,-0.39,-0.11,1.4,0.26,0.47,-0.1
2022-12-08 20:8:08.7890,-0.56,0.01,0.46,0.28,0.66,0.09
2022-12-08 20:8:08.7990,-0.7,0.29,-0.2,0.22,0.7,0.19
2022-12-08 20:8:08.8090,-0.77,0.49,-0.5,0.15,0.68,0.2
2022-12-08 20:8:08.8190,-0.82,0.61,-0.8,0.07,0.54,0.16
2022-12-08 20:8:08.8290,-0.8,0.69,-0.76,0.02,0.34,0.07
2022-12-08 20:8:08.8390,-0.74,0.73,-0.51,-0.02,0.13,-0.05
2022-12-08 20:8:08.8490,-0.67,0.67,-0.4,-0.05,-0.07,-0.16
2022-12-08 20:8:08.8590,-0.62,0.57,-0.06,-0.11,-0.26,-0.26
2022-12-08 20:8:08.8690,-0.62,0.57,-0.06,-0.18,-0.42,-0.34
2022-12-08 20:8:08.8790,-0.54,0.15,0.55,-0.22,-0.55,-0.4
2022-12-08 20:8:08.8890,-0.54,0.15,0.55,-0.21,-0.64,-0.42
2022-12-08 20:8:08.8990,-0.56,-0.06,0.98,-0.13,-0.69,-0.39
2022-12-08 20:8:08.9090,-0.48,-0.33,1.35,0.03,-0.65,-0.29
2022-12-08 20:8:08.9190,-0.33,-0.42,1.15,0.23,-0.52,-0.14
2022-12-08 20:8:08.9290,-0.33,-0.42,1.15,0.41,-0.3,0.04
2022-12-08 20:8:08.9380,-0.15,-0.36,0.03,0.5,-0.07,0.16
2022-12-08 20:8:08.9480,-0.15,-0.36,0.03,0.49,0.15,0.23
2022-12-08 20:8:08.9580,-0.17,-0.17,-0.45,0.41,0.37,0.22
2022-12-08 20:8:08.9680,-0.12,0.25,-1.5,0.31,0.62,0.18
2022-12-08 20:8:08.9780,-0.12,0.25,-1.5,0.22,0.76,0.11
2022-12-08 20:8:08.9880,-0.19,0.42,-1.69,0.14,0.75,0.02
2022-12-08 20:8:08.9980,-0.37,0.47,-1.5,0.09,0.63,-0.08
2022-12-08 20:8:09.0080,-0.61,0.5,-1.35,0.09,0.45,-0.19
2022-12-08 20:8:09.0180,-0.78,0.32,-1.28,0.15,0.23,-0.24
2022-12-08 20:8:09.0280,-0.87,0.24,-1.16,0.22,0.03,-0.22
2022-12-08 20:8:09.0380,-0.74,0.3,-1.09,0.28,-0.08,-0.18
2022-12-08 20:8:09.0480,-0.53,0.25,-1.21,0.31,-0.13,-0.14
2022-12-08 20:8:09.0580,-0.42,0.25,-1.37,0.3,-0.14,-0.1
2022-12-08 20:8:09.0680,-0.32,0.26,-1.45,0.28,-0.16,-0.06
2022-12-08 20:8:09.0780,-0.23,0.31,-1.46,0.26,-0.15,-0.02
2022-12-08 20:8:09.0880,-0.15,0.33,-1.4,0.23,-0.13,-0.0
2022-12-08 20:8:09.0980,-0.15,0.33,-1.4,0.21,-0.09,-0.01
2022-12-08 20:8:09.1080,-0.11,0.37,-1.34,0.18,-0.03,-0.04
2022-12-08 20:8:09.1180,-0.09,0.36,-1.21,0.17,0.07,-0.07
2022-12-08 20:8:09.1280,-0.1,0.32,-1.09,0.21,0.14,-0.07
2022-12-08 20:8:09.1380,-0.22,0.34,-0.94,0.29,0.15,-0.02
2022-12-08 20:8:09.1480,-0.41,0.38,-0.74,0.39,0.12,0.06
2022-12-08 20:8:09.1570,-0.56,0.38,-0.73,0.46,0.07,0.16
2022-12-08 20:8:09.1670,-0.61,0.45,-0.86,0.45,0.03,0.25
2022-12-08 20:8:09.1770,-0.65,0.63,-1.08,0.38,0.02,0.3
2022-12-08 20:8:09.1880,-0.66,0.86,-1.29,0.21,0.0,0.3
2022-12-08 20:8:09.1970,-0.59,1.05,-1.27,0.01,-0.07,0.23
2022-12-08 20:8:09.2070,-0.57,1.11,-0.88,-0.14,-0.19,0.12
2022-12-08 20:8:09.2170,-0.6241711943596602,1.07,0.45,-0.19,-0.29,0.01
2022-12-08 20:8:09.2270,-0.63,1.07,0.45,-0.16,-0.32,-0.06
2022-12-08 20:8:09.2370,-0.47649552382528787,0.84,1.14,-0.11,-0.31,-0.09
2022-12-08 20:8:09.2470,-0.48,0.84,1.14,-0.06,-0.21,-0.09
2022-12-08 20:8:09.2570,-0.48,0.77,1.28,-0.02,-0.03,-0.07
2022-12-08 20:8:09.2670,-0.57,0.78,1.25,0.02,0.1,-0.03
2022-12-08 20:8:09.2770,-0.68,0.77,1.64,0.04,0.22,-0.01
2022-12-08 20:8:09.2880,-0.68,0.77,1.64,-0.01,0.21,-0.01
2022-12-08 20:8:09.2970,-0.75,0.61,1.85,-0.16,0.03,-0.04
2022-12-08 20:8:09.3070,-0.93,0.52,2.42,-0.33,-0.23,-0.08
2022-12-08 20:8:09.3170,-1.04,0.43,2.78,-0.41,-0.43,-0.11
2022-12-08 20:8:09.3270,-0.98,0.15,2.85,-0.37,-0.55,-0.12
2022-12-08 20:8:09.3370,-0.83,-0.11,2.66,-0.25,-0.57,-0.08
2022-12-08 20:8:09.3460,-0.78,-0.13,2.4,-0.11,-0.47,-0.03
2022-12-08 20:8:09.3570,-0.72,-0.11,1.99,-0.03,-0.3,0.03
2022-12-08 20:8:09.3660,-0.7,-0.28,1.39,-0.01,-0.07,0.11
2022-12-08 20:8:09.3760,-0.86,-0.25,0.84,-0.0,0.19,0.21
2022-12-08 20:8:09.3860,-1.01,-0.22,0.34,-0.03,0.41,0.32
2022-12-08 20:8:09.3960,-1.04,-0.36,-0.03,-0.11,0.52,0.41
2022-12-08 20:8:09.4060,-1.1,-0.33,-0.11,-0.17,0.55,0.44
2022-12-08 20:8:09.4160,-1.19,-0.36,-0.16,-0.19,0.5,0.43
2022-12-08 20:8:09.4260,-1.23,-0.5,-0.13,-0.19,0.37,0.41
2022-12-08 20:8:09.4360,-1.19,-0.63,0.17,-0.12,0.21,0.37
2022-12-08 20:8:09.4460,-1.19,-0.63,0.17,-0.02,0.04,0.36
2022-12-08 20:8:09.4560,-1.17,-0.64,0.09,0.04,-0.1,0.35
2022-12-08 20:8:09.4660,-1.1,-0.67,-0.06,0.07,-0.21,0.36
2022-12-08 20:8:09.4760,-1.05,-0.69,-0.29,0.05,-0.28,0.38
2022-12-08 20:8:09.4860,-0.9097802701592446,-0.61,-0.56,0.02,-0.33,0.4
2022-12-08 20:8:09.4960,-0.91,-0.61,-0.56,-0.02,-0.34,0.4
2022-12-08 20:8:09.5060,-0.78,-0.62,-0.62,-0.05,-0.3,0.4
2022-12-08 20:8:09.5160,-0.65,-0.6,-0.71,-0.08,-0.26,0.37
2022-12-08 20:8:09.5260,-0.51,-0.6,-0.71,-0.07,-0.22,0.34
2022-12-08 20:8:09.5350,-0.42,-0.58,-0.64,-0.04,-0.14,0.31
2022-12-08 20:8:09.5450,-0.3,-0.5,-0.78,-0.02,-0.06,0.27
2022-12-08 20:8:09.5560,-0.12,-0.44,-0.92,-0.03,0.01,0.22
2022-12-08 20:8:09.5660,-0.02,-0.33,-1.02,-0.04,0.06,0.17
2022-12-08 20:8:09.5760,-0.06,-0.19,-1.06,-0.02,0.09,0.11
2022-12-08 20:8:09.5860,-0.12,-0.19,-1.17,0.03,0.11,0.07
2022-12-08 20:8:09.5950,-0.23,-0.17,-1.26,0.09,0.08,0.05
2022-12-08 20:8:09.6050,-0.37,-0.11,-1.33,0.14,0.03,0.06
2022-12-08 20:8:09.6150,-0.47,-0.07,-1.38,0.17,-0.02,0.07
2022-12-08 20:8:09.6250,-0.48,-0.05,-1.59,0.19,-0.05,0.09
2022-12-08 20:8:09.6350,-0.45,0.0,-1.79,0.17,-0.07,0.1
2022-12-08 20:8:09.6450,-0.38,0.07,-1.89,0.13,-0.06,0.1
2022-12-08 20:8:09.6550,-0.32,0.19,-2.03,0.08,0.0,0.08
2022-12-08 20:8:09.6650,-0.28,0.34,-2.11,0.02,0.07,0.04
2022-12-08 20:8:09.6750,-0.29,0.45,-2.16,-0.03,0.13,0.01
2022-12-08 20:8:09.6850,-0.28,0.57,-2.09,-0.05,0.17,-0.04
2022-12-08 20:8:09.6950,-0.29,0.62,-1.66,-0.06,0.15,-0.08
2022-12-08 20:8:09.7050,-0.29,0.62,-1.66,-0.02,0.1,-0.11
2022-12-08 20:8:09.7160,-0.35,0.59,-1.32,0.05,0.05,-0.11
2022-12-08 20:8:09.7250,-0.34,0.54,-1.2,0.11,0.01,-0.1
2022-12-08 20:8:09.7350,-0.31,0.44,-1.07,0.15,-0.02,-0.09
2022-12-08 20:8:09.7450,-0.33,0.4,-0.93,0.18,-0.04,-0.08
2022-12-08 20:8:09.7550,-0.39,0.35,-0.86,0.16,-0.06,-0.07
2022-12-08 20:8:09.7650,-0.42,0.31,-0.73,0.1,-0.09,-0.08
2022-12-08 20:8:09.7740,-0.46,0.21,-0.47,0.04,-0.12,-0.09
2022-12-08 20:8:09.7840,-0.47,0.13,-0.14,0.0,-0.17,-0.1
2022-12-08 20:8:09.7940,-0.44,-0.02,0.36,0.04,-0.25,-0.11
2022-12-08 20:8:09.8040,-0.44,-0.19,1.05,0.13,-0.32,-0.12
2022-12-08 20:8:09.8140,-0.5,-0.29,1.61,0.23,-0.36,-0.11
2022-12-08 20:8:09.8240,-0.55,-0.35,1.92,0.3,-0.35,-0.07
2022-12-08 20:8:09.8340,-0.54,-0.4,1.95,0.33,-0.24,-0.02
2022-12-08 20:8:09.8440,-0.63,-0.15,1.33,0.3,-0.06,0.03
2022-12-08 20:8:09.8540,-0.63,-0.15,1.33,0.2,0.13,0.07
2022-12-08 20:8:09.8640,-0.74,0.05,1.05,0.02,0.29,0.09
2022-12-08 20:8:09.8740,-0.72,0.16,0.81,-0.19,0.38,0.08
2022-12-08 20:8:09.8840,-0.72,0.3,0.76,-0.42,0.38,0.04
2022-12-08 20:8:09.8940,-0.69,0.47,0.9,-0.63,0.3,-0.05
2022-12-08 20:8:09.9040,-0.48,0.41,1.71,-0.77,0.14,-0.18
2022-12-08 20:8:09.9140,-0.42,0.25,2.23,-0.8,-0.03,-0.34
2022-12-08 20:8:09.9240,-0.42,0.13,2.52,-0.7,-0.16,-0.47
2022-12-08 20:8:09.9340,-0.42,0.13,2.52,-0.54,-0.18,-0.55
2022-12-08 20:8:09.9440,-0.42,0.0,2.41,-0.38,-0.11,-0.56
2022-12-08 20:8:09.9540,-0.47,-0.01,2.08,-0.25,0.01,-0.5
2022-12-08 20:8:09.9640,-0.58,0.06,1.67,-0.19,0.12,-0.42
2022-12-08 20:8:09.9740,-0.66,0.09,1.22,-0.2,0.19,-0.33
2022-12-08 20:8:09.9840,-0.71,0.14,0.95,-0.26,0.19,-0.29
2022-12-08 20:8:09.9940,-0.7,0.17,0.84,-0.3,0.09,-0.31
2022-12-08 20:8:10.0030,-0.77,-0.02,1.14,-0.29,-0.07,-0.33
2022-12-08 20:8:10.0130,-0.78,-0.13,1.51,-0.19,-0.21,-0.32
2022-12-08 20:8:10.0240,-0.61,-0.25,1.69,-0.05,-0.32,-0.29
2022-12-08 20:8:10.0330,-0.46,-0.43,1.69,0.08,-0.37,-0.24
2022-12-08 20:8:10.0430,-0.41,-0.45,1.58,0.18,-0.39,-0.18
2022-12-08 20:8:10.0530,-0.41,-0.45,1.36,0.24,-0.37,-0.11
2022-12-08 20:8:10.0630,-0.33,-0.48,0.99,0.27,-0.29,-0.04
2022-12-08 20:8:10.0730,-0.19,-0.43,0.61,0.29,-0.15,0.02
2022-12-08 20:8:10.0830,-0.11,-0.36,0.16,0.31,0.0,0.07
2022-12-08 20:8:10.0930,-0.1,-0.28,-0.21,0.33,0.14,0.11
2022-12-08 20:8:10.1030,-0.12,-0.16,-0.56,0.33,0.28,0.13
2022-12-08 20:8:10.1130,-0.14,-0.08,-1.01,0.31,0.4,0.14
2022-12-08 20:8:10.1230,-0.16,0.03,-1.44,0.27,0.49,0.15
2022-12-08 20:8:10.1330,-0.17,0.18,-1.84,0.21,0.55,0.16
2022-12-08 20:8:10.1430,-0.2,0.31,-2.305831950902939,0.16,0.55,0.15
2022-12-08 20:8:10.1530,-0.28,0.38,-2.31,0.13,0.47,0.12
2022-12-08 20:8:10.1630,-0.4,0.46,-2.24,0.13,0.33,0.08
2022-12-08 20:8:10.1730,-0.53,0.49,-2.09,0.16,0.19,0.04
2022-12-08 20:8:10.1830,-0.59,0.46,-2.09,0.17,0.06,0.02
2022-12-08 20:8:10.1920,-0.57,0.49,-2.13,0.13,-0.02,0.01
2022-12-08 20:8:10.2030,-0.46,0.51,-2.14,0.04,-0.04,0.01
2022-12-08 20:8:10.2130,-0.3,0.5,-2.18,-0.06,-0.03,-0.0
2022-12-08 20:8:10.2220,-0.22,0.5,-2.03,-0.13,-0.02,-0.01
2022-12-08 20:8:10.2320,-0.23,0.54,-1.72,-0.16,-0.05,-0.03
2022-12-08 20:8:10.2420,-0.26,0.47,-1.23,-0.13,-0.07,-0.04
2022-12-08 20:8:10.2520,-0.3,0.42,-0.85,-0.06,-0.07,-0.03
2022-12-08 20:8:10.2620,-0.19137205928564072,0.24,-0.36,0.04,-0.07,-0.0
2022-12-08 20:8:10.2720,-0.2,0.24,-0.36,0.13,-0.05,0.03
2022-12-08 20:8:10.2820,-0.19,0.2,-0.25,0.2,0.01,0.06
2022-12-08 20:8:10.2920,-0.19,0.21,-0.28,0.24,0.08,0.11
2022-12-08 20:8:10.3020,-0.18,0.23,-0.33,0.26,0.16,0.14
2022-12-08 20:8:10.3120,-0.2,0.28,-0.41,0.27,0.22,0.17
2022-12-08 20:8:10.3220,-0.24,0.35,-0.5,0.26,0.28,0.17
2022-12-08 20:8:10.3320,-0.26,0.37,-0.56,0.26,0.3,0.16
2022-12-08 20:8:10.3420,-0.29,0.38,-0.53,0.27,0.28,0.15
2022-12-08 20:8:10.3520,-0.39,0.4,-0.44,0.3,0.23,0.14
2022-12-08 20:8:10.3620,-0.49,0.38,-0.36,0.34,0.19,0.17
2022-12-08 20:8:10.3720,-0.59,0.4,-0.38,0.34,0.15,0.2
2022-12-08 20:8:10.3820,-0.64,0.51,-0.44,0.3,0.12,0.23
2022-12-08 20:8:10.3920,-0.62,0.56,-0.48,0.23,0.1,0.23
2022-12-08 20:8:10.4020,-0.57,0.52,-0.42,0.15,0.04,0.2
2022-12-08 20:8:10.4120,-0.54,0.43,-0.22,0.05,-0.06,0.16
2022-12-08 20:8:10.4210,-0.22,0.28,0.45,-0.04,-0.13,0.12
2022-12-08 20:8:10.4310,-0.22,0.28,0.45,-0.12,-0.16,0.07
2022-12-08 20:8:10.4410,0.03,0.11,0.66,-0.18,-0.15,0.02
2022-12-08 20:8:10.4510,0.07,0.07,0.89,-0.22,-0.11,-0.02
2022-12-08 20:8:10.4610,-0.01,0.08,1.12,-0.24,-0.03,-0.03
2022-12-08 20:8:10.4710,-0.22,0.2,1.2,-0.23,0.07,-0.01
2022-12-08 20:8:10.4810,-0.22,0.31550493925809864,1.2,-0.2,0.16,0.05
2022-12-08 20:8:10.4910,-0.66,0.33,1.17,-0.17,0.21,0.13
2022-12-08 20:8:10.5010,-0.66,0.33,1.17,-0.15,0.15,0.21
2022-12-08 20:8:10.5110,-0.78,0.35,1.32,-0.15,0.06,0.25
2022-12-08 20:8:10.5210,-0.687125534042716,0.28,1.27,-0.16,-0.02,0.25
2022-12-08 20:8:10.5310,-0.69,0.28,1.27,-0.19,-0.07,0.23
2022-12-08 20:8:10.5410,-0.65,0.37,1.16,-0.22,-0.08,0.2
2022-12-08 20:8:10.5510,-0.66,0.48,1.01,-0.21,-0.06,0.15
2022-12-08 20:8:10.5610,-0.67,0.41,0.81,-0.19,-0.09,0.12
2022-12-08 20:8:10.5710,-0.76,0.29,0.87,-0.17,-0.13,0.09
2022-12-08 20:8:10.5810,-0.81,0.17,0.88,-0.19,-0.18,0.06
2022-12-08 20:8:10.5910,-0.8,0.02,0.75,-0.26,-0.24,0.02
2022-12-08 20:8:10.6000,-0.79,-0.07,0.67,-0.34,-0.26,-0.03
2022-12-08 20:8:10.6110,-0.78,-0.13,0.63,-0.4,-0.25,-0.07
2022-12-08 20:8:10.6200,-0.74,-0.19,0.65,-0.45,-0.22,-0.11
2022-12-08 20:8:10.6300,-0.7,-0.33,0.87,-0.45,-0.19,-0.14
2022-12-08 20:8:10.6400,-0.7,-0.33,0.87,-0.4,-0.16,-0.16
2022-12-08 20:8:10.6500,-0.76,-0.37,0.99,-0.32,-0.16,-0.18
2022-12-08 20:8:10.6600,-0.86,-0.42,1.12,-0.22,-0.18,-0.17
2022-12-08 20:8:10.6700,-0.95,-0.47,0.94,-0.12,-0.17,-0.13
2022-12-08 20:8:10.6800,-0.91,-0.48,0.68,-0.06,-0.15,-0.07
2022-12-08 20:8:10.6900,-0.83,-0.45,0.41,-0.04,-0.1,-0.01
2022-12-08 20:8:10.7000,-0.83,-0.45,0.41,-0.05,-0.05,0.04
2022-12-08 20:8:10.7100,-0.8,-0.39,0.18,-0.05,0.01,0.05
2022-12-08 20:8:10.7200,-0.79,-0.31,0.0,-0.05,0.08,0.05
2022-12-08 20:8:10.7300,-0.78,-0.22,-0.23,-0.04,0.13,0.04
2022-12-08 20:8:10.7400,-0.74,-0.12,-0.46,-0.02,0.17,0.03
2022-12-08 20:8:10.7500,-0.73,-0.08,-0.69,-0.0,0.2,0.03
2022-12-08 20:8:10.7600,-0.78,0.02,-0.9,-0.01,0.2,0.04
2022-12-08 20:8:10.7700,-0.79,0.05,-1.07,-0.03,0.21,0.06
2022-12-08 20:8:10.7800,-0.77,0.1,-1.3,-0.05,0.21,0.07
2022-12-08 20:8:10.7900,-0.68,0.1854239060729742,-1.64,-0.06,0.2,0.08
2022-12-08 20:8:10.8000,-0.62,0.20637974224984648,-1.64,-0.07,0.15,0.07
2022-12-08 20:8:10.8100,-0.63,0.1983207441866398,-1.43,-0.03,0.07,0.04
2022-12-08 20:8:10.8200,-0.72,0.19,-1.43,0.07,0.02,0.02
2022-12-08 20:8:10.8300,-0.69,0.21,-1.39,0.22,0.02,0.02
2022-12-08 20:8:10.8400,-0.58,0.2,-1.45,0.35,0.07,0.05
2022-12-08 20:8:10.8490,-0.51,0.28,-1.66,0.42,0.14,0.09
2022-12-08 20:8:10.8590,-0.42,0.4,-1.88,0.42,0.21,0.11
2022-12-08 20:8:10.8690,-0.38,0.48,-2.11,0.36,0.26,0.11
2022-12-08 20:8:10.8790,-0.36,0.58,-2.26,0.27,0.29,0.07
2022-12-08 20:8:10.8890,-0.31,0.64,-2.25,0.18,0.28,0.02
2022-12-08 20:8:10.8990,-0.5,0.55,-1.58,0.14,0.18,-0.05
2022-12-08 20:8:10.9090,-0.64,0.53,-1.13,0.2,0.06,-0.09
2022-12-08 20:8:10.9190,-0.63,0.41,-0.9,0.3,-0.03,-0.09
2022-12-08 20:8:10.9290,-0.63,0.41,-0.9,0.4,-0.05,-0.07
2022-12-08 20:8:10.9390,-0.59,0.29,-0.9,0.45,-0.02,-0.03
2022-12-08 20:8:10.9490,-0.61,0.27,-0.99,0.42,0.03,0.01
2022-12-08 20:8:10.9590,-0.61,0.27,-1.12,0.35,0.08,0.03
2022-12-08 20:8:10.9690,-0.55,0.25,-1.15,0.24,0.12,0.04
2022-12-08 20:8:10.9790,-0.45,0.27,-1.17,0.12,0.08,0.01
2022-12-08 20:8:10.9890,-0.32,0.24,-0.9,0.04,-0.01,-0.06
2022-12-08 20:8:10.9990,-0.22,0.18,-0.5,-0.0,-0.12,-0.15
2022-12-08 20:8:11.0090,-0.18,0.12,-0.12,-0.0,-0.22,-0.25
2022-12-08 20:8:11.0190,-0.19,0.05,0.4,0.02,-0.26,-0.31
2022-12-08 20:8:11.0290,-0.2,0.09,0.6,0.04,-0.22,-0.32
2022-12-08 20:8:11.0390,-0.34,0.05,0.64,0.04,-0.12,-0.27
2022-12-08 20:8:11.0480,-0.58,0.26,0.55,-0.02,-0.06,-0.2
2022-12-08 20:8:11.0580,-0.7,0.38,0.6,-0.14,-0.02,-0.15
2022-12-08 20:8:11.0680,-0.71,0.27,0.7,-0.32,-0.0,-0.13
2022-12-08 20:8:11.0780,-0.6,0.28,0.81,-0.54,-0.03,-0.14
2022-12-08 20:8:11.0880,-0.31,0.22,1.25,-0.77,-0.09,-0.21
2022-12-08 20:8:11.0980,0.03,0.12,1.82,-0.91,-0.17,-0.35
2022-12-08 20:8:11.1080,0.29,-0.11,2.57,-0.89,-0.21,-0.51
2022-12-08 20:8:11.1180,0.23,-0.49,3.66,-0.73,-0.2,-0.61
2022-12-08 20:8:11.1280,-0.07,-0.39,3.31,-0.44,-0.04,-0.59
2022-12-08 20:8:11.1380,-0.07,-0.39,3.31,-0.15,0.13,-0.48
2022-12-08 20:8:11.1480,-0.4,-0.35,2.98,0.07,0.29,-0.29
2022-12-08 20:8:11.1630,-0.96,-0.05,1.94,0.19,0.39,-0.1
2022-12-08 20:8:11.1670,-0.96,-0.05,1.94,0.2,0.39,0.07
2022-12-08 20:8:11.1780,-0.85,0.17,1.43,0.13,0.31,0.16
2022-12-08 20:8:11.1880,-0.56,0.15,1.55,0.02,0.14,0.16
2022-12-08 20:8:11.1980,-0.56,0.15,1.55,-0.06,-0.04,0.07
2022-12-08 20:8:11.2080,-0.29,0.06,1.7,-0.1,-0.2,-0.06
2022-12-08 20:8:11.2180,0.06,-0.01,1.75,-0.08,-0.32,-0.16
2022-12-08 20:8:11.2280,0.06,-0.01,1.75,-0.03,-0.4,-0.23
2022-12-08 20:8:11.2380,0.14,-0.12,1.69,0.04,-0.41,-0.25
2022-12-08 20:8:11.2480,0.1,-0.18,1.4,0.11,-0.38,-0.23
2022-12-08 20:8:11.2580,0.04,-0.22,1.02,0.17,-0.31,-0.18
2022-12-08 20:8:11.2670,-0.12,-0.14,0.08,0.22,-0.19,-0.11
2022-12-08 20:8:11.2770,-0.12,-0.12377108350396157,-0.26,0.24,-0.08,-0.05
2022-12-08 20:8:11.2870,-0.25,-0.13,-0.26,0.26,-0.01,-0.0
2022-12-08 20:8:11.2970,-0.34,-0.07,-0.53,0.27,0.04,0.03
2022-12-08 20:8:11.3070,-0.41,-0.03,-0.75,0.3,0.05,0.05
2022-12-08 20:8:11.3170,-0.43,0.0,-0.9,0.32,0.08,0.05
2022-12-08 20:8:11.3270,-0.43,0.08,-1.14,0.34,0.12,0.03
2022-12-08 20:8:11.3370,-0.44,0.04,-1.45,0.35,0.16,0.01
2022-12-08 20:8:11.3470,-0.46,0.13,-1.66,0.35,0.18,-0.0
2022-12-08 20:8:11.3570,-0.47,0.21,-1.86,0.35,0.21,-0.02
2022-12-08 20:8:11.3670,-0.49,0.2,-2.06,0.34,0.21,-0.02
2022-12-08 20:8:11.3770,-0.52,0.21,-2.13,0.33,0.18,-0.01
2022-12-08 20:8:11.3870,-0.54,0.24,-2.12,0.32,0.11,-0.0
2022-12-08 20:8:11.3970,-0.56,0.25,-2.04,0.28,0.01,-0.0
2022-12-08 20:8:11.4070,-0.6,0.23,-1.83,0.26,-0.05,0.01
2022-12-08 20:8:11.4170,-0.54,0.31,-1.78,0.24,-0.06,0.02
2022-12-08 20:8:11.4270,-0.4,0.33,-1.77,0.21,-0.05,0.03
2022-12-08 20:8:11.4370,-0.25,0.28,-1.69,0.17,-0.02,0.01
2022-12-08 20:8:11.4470,-0.16,0.29,-1.61,0.13,0.04,-0.02
2022-12-08 20:8:11.4570,-0.06,0.34,-1.53,0.11,0.12,-0.04
2022-12-08 20:8:11.4670,0.04,0.35,-1.52,0.09,0.15,-0.05
2022-12-08 20:8:11.4770,0.05,0.33,-1.3,0.11,0.15,-0.06
2022-12-08 20:8:11.4860,-0.07,0.34,-1.0,0.17,0.18,-0.06
2022-12-08 20:8:11.4960,-0.11,0.24,-1.03,0.25,0.17,-0.04
2022-12-08 20:8:11.5060,-0.18,0.19,-0.89,0.31,0.13,-0.01
2022-12-08 20:8:11.5160,-0.26,0.19,-0.66,0.37,0.09,0.02
2022-12-08 20:8:11.5260,-0.34,0.19,-0.53,0.41,0.12,0.07
2022-12-08 20:8:11.5360,-0.36,0.23,-0.64,0.4,0.18,0.11
2022-12-08 20:8:11.5460,-0.27,0.23,-0.78,0.33,0.26,0.14
2022-12-08 20:8:11.5560,-0.22,0.29,-0.85,0.25,0.31,0.17
2022-12-08 20:8:11.5660,-0.25,0.36,-0.82,0.14,0.3,0.17
2022-12-08 20:8:11.5760,-0.28,0.43,-0.59,0.07,0.26,0.15
2022-12-08 20:8:11.5860,-0.32,0.37,-0.39,0.04,0.15,0.11
2022-12-08 20:8:11.5960,-0.42,0.33,-0.01,0.05,0.03,0.08
2022-12-08 20:8:11.6060,-0.46,0.18,0.35,0.07,-0.05,0.04
2022-12-08 20:8:11.6160,-0.46,0.18,0.35,0.06,-0.12,0.03
2022-12-08 20:8:11.6260,-0.35,0.15,0.48,0.03,-0.14,0.04
2022-12-08 20:8:11.6360,-0.34,0.12,0.67,-0.02,-0.12,0.04
2022-12-08 20:8:11.6460,-0.33,0.08,0.75,-0.07,-0.05,0.03
2022-12-08 20:8:11.6560,-0.35,0.07,0.84,-0.13,0.05,0.04
2022-12-08 20:8:11.6660,-0.38,0.14,0.86,-0.17,0.19,0.07
2022-12-08 20:8:11.6760,-0.43,0.24,0.91,-0.19,0.35,0.1
2022-12-08 20:8:11.6850,-0.52,0.38,0.81,-0.2,0.46,0.13
2022-12-08 20:8:11.6950,-0.63,0.39,0.81,-0.25,0.49,0.16
2022-12-08 20:8:11.7050,-0.72,0.43,0.86,-0.33,0.43,0.18
2022-12-08 20:8:11.7150,-0.79,0.4,0.89,-0.44,0.31,0.17
2022-12-08 20:8:11.7250,-0.77,0.29,1.08,-0.55,0.15,0.13
2022-12-08 20:8:11.7350,-0.68,0.16,1.32,-0.6,-0.0,0.08
2022-12-08 20:8:11.7450,-0.63,-0.02,1.65,-0.54,-0.13,0.03
2022-12-08 20:8:11.7550,-0.63,-0.2,1.9,-0.41,-0.19,0.02
2022-12-08 20:8:11.7650,-0.75,-0.28,1.96,-0.24,-0.19,0.08
2022-12-08 20:8:11.7750,-0.85,-0.25,1.82,-0.07,-0.13,0.18
2022-12-08 20:8:11.7850,-0.83,-0.23,1.47,0.02,-0.04,0.31
2022-12-08 20:8:11.7950,-0.78,-0.12,1.02,0.04,0.02,0.42
2022-12-08 20:8:11.8050,-0.76,0.05,0.6,-0.01,0.06,0.49
2022-12-08 20:8:11.8150,-0.7,0.18,0.3,-0.09,0.04,0.5
2022-12-08 20:8:11.8250,-0.57,0.26,0.15,-0.15,-0.02,0.44
2022-12-08 20:8:11.8350,-0.47,0.3,0.14,-0.17,-0.11,0.35
2022-12-08 20:8:11.8450,-0.52,0.2,0.4,-0.14,-0.24,0.24
2022-12-08 20:8:11.8560,-0.52,0.2,0.4,-0.06,-0.37,0.16
2022-12-08 20:8:11.8650,-0.55,0.06,0.53,0.04,-0.47,0.12
2022-12-08 20:8:11.8750,-0.6,-0.15,0.36,0.13,-0.52,0.13
2022-12-08 20:8:11.8850,-0.6,-0.15,0.36,0.19,-0.51,0.16
2022-12-08 20:8:11.8950,-0.63,-0.22,0.14,0.21,-0.44,0.2
2022-12-08 20:8:11.9040,-0.61,-0.26,-0.14,0.17,-0.3,0.23
2022-12-08 20:8:11.9140,-0.53,-0.28,-0.44,0.08,-0.16,0.25
2022-12-08 20:8:11.9250,-0.44,-0.2,-0.5,-0.0,-0.01,0.24
2022-12-08 20:8:11.9340,-0.34,-0.12,-0.59,-0.04,0.1,0.2
2022-12-08 20:8:11.9440,-0.19,-0.18,-0.69,-0.04,0.11,0.13
2022-12-08 20:8:11.9530,-0.2,-0.18,-0.56,0.01,0.02,0.04
2022-12-08 20:8:11.9640,-0.3,-0.15,-0.41,0.09,-0.05,-0.04
2022-12-08 20:8:11.9740,-0.31,-0.15,-0.56,0.17,-0.11,-0.08
2022-12-08 20:8:11.9840,-0.26,-0.21,-0.83,0.21,-0.14,-0.1
2022-12-08 20:8:11.9940,-0.29,-0.23,-1.08,0.22,-0.17,-0.1
2022-12-08 20:8:12.0040,-0.39,-0.2,-1.28,0.19,-0.17,-0.08
2022-12-08 20:8:12.0140,-0.44,-0.18,-1.4,0.13,-0.13,-0.07
2022-12-08 20:8:12.0240,-0.4,-0.12,-1.55,0.06,-0.02,-0.06
2022-12-08 20:8:12.0340,-0.27,-0.07,-1.66,0.01,0.11,-0.07
2022-12-08 20:8:12.0440,-0.17,-0.01,-1.66,0.02,0.21,-0.09
2022-12-08 20:8:12.0540,-0.2,0.05,-1.58,0.07,0.28,-0.1
2022-12-08 20:8:12.0640,-0.27,0.11,-1.5,0.16,0.31,-0.1
2022-12-08 20:8:12.0740,-0.42,0.13,-1.47,0.26,0.3,-0.09
2022-12-08 20:8:12.0840,-0.61,0.14,-1.49,0.34,0.26,-0.06
2022-12-08 20:8:12.0940,-0.74,0.2,-1.61,0.36,0.21,-0.03
2022-12-08 20:8:12.1030,-0.75,0.25,-1.78,0.32,0.2,0.0
2022-12-08 20:8:12.1130,-0.68,0.3,-1.9,0.27,0.24,0.03
2022-12-08 20:8:12.1230,-0.62,0.42,-1.94,0.23,0.28,0.04
2022-12-08 20:8:12.1330,-0.62,0.44,-1.75,0.21,0.26,0.04
2022-12-08 20:8:12.1430,-0.9,0.32,-0.93,0.21,0.16,0.03
2022-12-08 20:8:12.1530,-0.9,0.32,-0.93,0.23,0.04,0.05
2022-12-08 20:8:12.1630,-1.0,0.3,-0.51,0.28,-0.04,0.09
2022-12-08 20:8:12.1730,-0.75,0.29,-0.29,0.32,-0.09,0.13
2022-12-08 20:8:12.1830,-0.75,0.29,-0.29,0.31,-0.15,0.15
2022-12-08 20:8:12.1930,-0.61,0.25,-0.09,0.24,-0.24,0.13
2022-12-08 20:8:12.2030,-0.52,0.24,0.16,0.14,-0.34,0.08
2022-12-08 20:8:12.2130,-0.4,0.19,0.47,0.03,-0.43,-0.0
2022-12-08 20:8:12.2230,-0.17,0.07,0.85,-0.07,-0.47,-0.09
2022-12-08 20:8:12.2330,0.09,-0.02,1.24,-0.12,-0.45,-0.17
2022-12-08 20:8:12.2430,0.26,-0.13,1.69,-0.14,-0.3,-0.23
2022-12-08 20:8:12.2530,0.2,-0.14,1.85,-0.1,-0.05,-0.25
2022-12-08 20:8:12.2630,-0.04,0.03,1.68,-0.07,0.16,-0.21
2022-12-08 20:8:12.2730,-0.22,0.09,1.46,-0.13,0.26,-0.17
2022-12-08 20:8:12.2830,-0.36,0.13,1.29,-0.26,0.26,-0.15
2022-12-08 20:8:12.2940,-0.48,0.29,1.15,-0.48,0.2,-0.19
2022-12-08 20:8:12.3030,-0.4,0.29,1.05,-0.73,0.05,-0.28
2022-12-08 20:8:12.3120,-0.25,0.21,1.43,-0.86,-0.08,-0.41
2022-12-08 20:8:12.3220,-0.15,0.17,1.95,-0.82,-0.09,-0.51
2022-12-08 20:8:12.3320,-0.06,-0.03,2.13,-0.65,-0.04,-0.55
2022-12-08 20:8:12.3420,-0.19,-0.15,2.23,-0.39,0.07,-0.48
2022-12-08 20:8:12.3520,-0.46,-0.01,2.15,-0.13,0.22,-0.33
2022-12-08 20:8:12.3620,-0.65,0.04,1.69,0.07,0.34,-0.12
2022-12-08 20:8:12.3720,-0.76,0.17,1.16,0.14,0.42,0.07
2022-12-08 20:8:12.3820,-0.84,0.32,0.57,0.1,0.43,0.18
2022-12-08 20:8:12.3920,-0.81,0.43,0.1,-0.02,0.36,0.22
2022-12-08 20:8:12.4020,-0.61,0.55,-0.06,-0.18,0.22,0.18
2022-12-08 20:8:12.4120,-0.36,0.53,-0.05,-0.31,0.01,0.05
2022-12-08 20:8:12.4220,-0.1,0.44,0.31,-0.36,-0.24,-0.13
2022-12-08 20:8:12.4320,0.09,0.29,0.75,-0.34,-0.45,-0.31
2022-12-08 20:8:12.4420,0.2,0.12,1.15,-0.27,-0.59,-0.43
2022-12-08 20:8:12.4520,0.25,-0.02,1.34,-0.18,-0.62,-0.49
2022-12-08 20:8:12.4620,0.21,-0.18,1.3,-0.11,-0.57,-0.48
2022-12-08 20:8:12.4720,0.16,-0.3,1.11,-0.06,-0.44,-0.41
2022-12-08 20:8:12.4820,0.08,-0.36,0.79,-0.02,-0.28,-0.3
2022-12-08 20:8:12.4920,0.03,-0.38,0.48,0.04,-0.12,-0.18
2022-12-08 20:8:12.5020,0.0,-0.38,0.13,0.1,-0.0,-0.08
2022-12-08 20:8:12.5120,-0.1,-0.33,-0.12,0.17,0.07,-0.02
2022-12-08 20:8:12.5210,-0.17,-0.21,-0.36,0.21,0.1,-0.01
2022-12-08 20:8:12.5310,-0.13,-0.06,-0.93,0.23,0.12,-0.03
2022-12-08 20:8:12.5410,-0.13,-0.06,-0.93,0.21,0.14,-0.07
2022-12-08 20:8:12.5510,-0.13,0.0,-1.2,0.17,0.18,-0.12
2022-12-08 20:8:12.5610,-0.18,0.08,-1.44,0.11,0.22,-0.17
2022-12-08 20:8:12.5710,-0.24,0.15,-1.66,0.05,0.25,-0.2
2022-12-08 20:8:12.5810,-0.26,0.18,-1.8,0.02,0.23,-0.21
2022-12-08 20:8:12.5910,-0.33,0.19,-1.81,0.05,0.12,-0.21
2022-12-08 20:8:12.6010,-0.52,0.08,-1.51,0.15,-0.02,-0.16
2022-12-08 20:8:12.6110,-0.68,0.04,-1.22,0.28,-0.1,-0.09
2022-12-08 20:8:12.6210,-0.62,-0.08,-1.39,0.39,-0.15,-0.01
2022-12-08 20:8:12.6310,-0.53,-0.09,-1.46,0.44,-0.18,0.04
2022-12-08 20:8:12.6410,-0.45,-0.05,-1.61,0.42,-0.18,0.05
2022-12-08 20:8:12.6510,-0.2,0.02,-1.77,0.33,-0.14,0.02
2022-12-08 20:8:12.6610,-0.2,0.02,-1.77,0.22,-0.06,-0.02
2022-12-08 20:8:12.6700,-0.09,0.11,-1.78,0.13,0.05,-0.05
2022-12-08 20:8:12.6810,0.0,0.13,-1.64,0.08,0.14,-0.07
2022-12-08 20:8:12.6910,0.03,0.16,-1.41,0.07,0.19,-0.08
2022-12-08 20:8:12.7010,-0.05,0.14,-1.09,0.11,0.21,-0.07
2022-12-08 20:8:12.7110,-0.16,0.14,-0.77,0.17,0.17,-0.05
2022-12-08 20:8:12.7210,-0.29,0.08,-0.45,0.28,0.14,0.01
2022-12-08 20:8:12.7300,-0.36,0.06,-0.21,0.38,0.13,0.09
2022-12-08 20:8:12.7400,-0.31,0.05,-0.22,0.42,0.18,0.16
2022-12-08 20:8:12.7500,-0.22,0.09,-0.34,0.4,0.25,0.2
2022-12-08 20:8:12.7600,-0.13,0.15,-0.45,0.32,0.32,0.21
2022-12-08 20:8:12.7700,-0.07,0.24,-0.51,0.22,0.36,0.21
2022-12-08 20:8:12.7800,-0.04,0.35,-0.44,0.14,0.37,0.19
2022-12-08 20:8:12.7900,-0.02,0.4,-0.29,0.05,0.31,0.16
2022-12-08 20:8:12.8000,-0.01,0.41,-0.03,0.0,0.2,0.12
2022-12-08 20:8:12.8100,-0.08,0.4,0.33,-0.01,0.05,0.09
2022-12-08 20:8:12.8200,-0.14,0.39,0.65,0.02,-0.06,0.08
2022-12-08 20:8:12.8300,-0.14,0.38,0.88,0.06,-0.12,0.07
2022-12-08 20:8:12.8400,-0.17,0.36,0.94,0.08,-0.06,0.07
2022-12-08 20:8:12.8500,-0.27,0.44,0.77,0.07,0.09,0.11
2022-12-08 20:8:12.8600,-0.38,0.62,0.4,-0.03,0.22,0.14
2022-12-08 20:8:12.8700,-0.47,0.7,0.1,-0.2,0.31,0.16
2022-12-08 20:8:12.8800,-0.52,0.75,-0.05,-0.42,0.32,0.14
2022-12-08 20:8:12.8900,-0.47,0.71,-0.07,-0.7,0.15,0.08
2022-12-08 20:8:12.9000,-0.47,0.62,0.59,-0.92,-0.12,-0.03
2022-12-08 20:8:12.9100,-0.52,0.44,1.42,-0.99,-0.39,-0.14
2022-12-08 20:8:12.9200,-0.55,0.09,2.07,-0.9,-0.65,-0.19
2022-12-08 20:8:12.9300,-0.68,-0.32,3.2,-0.68,-0.82,-0.14
2022-12-08 20:8:12.9400,-0.68,-0.32,3.2,-0.43,-0.85,-0.04
2022-12-08 20:8:12.9490,-0.55,-0.47,3.1,-0.21,-0.72,0.11
2022-12-08 20:8:12.9590,-0.31,-0.52,2.72,-0.07,-0.46,0.26
2022-12-08 20:8:12.9690,-0.09,-0.49,2.13,-0.05,-0.19,0.38
2022-12-08 20:8:12.9800,0.05,-0.35,1.77,-0.1,0.03,0.44
2022-12-08 20:8:12.9890,0.08,-0.24,1.44,-0.17,0.23,0.43
2022-12-08 20:8:12.9990,-0.04,-0.22,0.61,-0.22,0.36,0.36
2022-12-08 20:8:13.0090,-0.04,-0.22,0.61,-0.25,0.4,0.27
2022-12-08 20:8:13.0190,-0.25,-0.18,0.61,-0.23,0.34,0.18
2022-12-08 20:8:13.0290,-0.55,-0.28,0.74,-0.17,0.22,0.13
2022-12-08 20:8:13.0390,-0.74,-0.33,0.75,-0.09,0.1,0.14
2022-12-08 20:8:13.0490,-0.82,-0.4,0.57,-0.0,-0.0,0.17
2022-12-08 20:8:13.0590,-0.92,-0.47,0.37,0.07,-0.09,0.22
2022-12-08 20:8:13.0690,-1.08,-0.44,0.15,0.11,-0.17,0.27
2022-12-08 20:8:13.0790,-1.16,-0.42,-0.04,0.11,-0.21,0.31
2022-12-08 20:8:13.0890,-1.14,-0.39,-0.22,0.1,-0.23,0.35
2022-12-08 20:8:13.0990,-1.06,-0.31,-0.34,0.08,-0.22,0.36
2022-12-08 20:8:13.1090,-0.9,-0.27,-0.38,0.1,-0.19,0.34
2022-12-08 20:8:13.1190,-0.55,-0.23,-0.41,0.11,-0.13,0.3
2022-12-08 20:8:13.1290,-0.55,-0.23,-0.41,0.13,-0.06,0.24
2022-12-08 20:8:13.1380,-0.38,-0.21,-0.54,0.14,0.01,0.19
2022-12-08 20:8:13.1480,-0.24,-0.21,-0.73,0.15,0.08,0.13
2022-12-08 20:8:13.1590,-0.16,-0.16,-1.01,0.16,0.11,0.07
2022-12-08 20:8:13.1690,-0.28,-0.06,-1.29,0.16,0.1,0.03
2022-12-08 20:8:13.1780,-0.44,-0.03,-1.37,0.18,0.04,0.01
2022-12-08 20:8:13.1880,-0.61,-0.04,-1.33,0.2,-0.04,0.0
2022-12-08 20:8:13.1980,-0.61,-0.04,-1.33,0.23,-0.09,0.02
2022-12-08 20:8:13.2080,-0.64,0.02,-1.46,0.25,-0.1,0.05
2022-12-08 20:8:13.2180,-0.54,0.13,-1.78,0.26,-0.07,0.07
2022-12-08 20:8:13.2280,-0.54,0.13,-1.78,0.26,-0.01,0.06
2022-12-08 20:8:13.2380,-0.47,0.21,-1.94,0.23,0.06,0.03
2022-12-08 20:8:13.2480,-0.43,0.28,-2.07,0.18,0.15,-0.01
2022-12-08 20:8:13.2580,-0.49,0.33,-2.19,0.12,0.23,-0.06
2022-12-08 20:8:13.2680,-0.62,0.38,-2.06,0.07,0.26,-0.07
2022-12-08 20:8:13.2780,-0.62,0.38,-2.06,0.05,0.22,-0.05
2022-12-08 20:8:13.2880,-0.76,0.4,-1.8,0.06,0.15,-0.01
2022-12-08 20:8:13.2980,-0.87,0.46,-1.56,0.08,0.05,0.04
2022-12-08 20:8:13.3080,-0.88,0.5,-1.33,0.11,-0.03,0.06
2022-12-08 20:8:13.3180,-0.81,0.55,-1.08,0.15,-0.09,0.04
2022-12-08 20:8:13.3280,-0.74,0.6,-0.85,0.18,-0.14,-0.01
2022-12-08 20:8:13.3370,-0.67,0.6,-0.59,0.21,-0.17,-0.06
2022-12-08 20:8:13.3470,-0.65,0.57,-0.27,0.25,-0.15,-0.09
2022-12-08 20:8:13.3580,-0.61,0.56,-0.07,0.3,-0.08,-0.11
2022-12-08 20:8:13.3670,-0.53,0.57,-0.02,0.34,-0.05,-0.12
2022-12-08 20:8:13.3770,-0.57,0.48,0.2,0.37,-0.04,-0.13
2022-12-08 20:8:13.3870,-0.8,0.39,0.44,0.37,-0.06,-0.12
2022-12-08 20:8:13.3970,-0.8,0.39,0.44,0.34,-0.07,-0.1
2022-12-08 20:8:13.4070,-0.79,0.32,0.49,0.29,-0.06,-0.07
2022-12-08 20:8:13.4170,-0.75,0.28,0.46,0.22,-0.08,-0.06
2022-12-08 20:8:13.4270,-0.66,0.21,0.49,0.1,-0.15,-0.05
2022-12-08 20:8:13.4370,-0.42,0.26,0.98,-0.02,-0.21,-0.07
2022-12-08 20:8:13.4470,-0.42,0.26,0.98,-0.11,-0.25,-0.14
2022-12-08 20:8:13.4570,-0.27,0.2,1.12,-0.13,-0.26,-0.2
2022-12-08 20:8:13.4670,-0.24,0.24,1.38,-0.09,-0.23,-0.25
2022-12-08 20:8:13.4770,-0.27,0.31,1.52,-0.04,-0.14,-0.3
2022-12-08 20:8:13.4870,-0.25,0.3,1.51,-0.02,-0.03,-0.36
2022-12-08 20:8:13.4970,-0.26,0.08,1.35,-0.09,0.02,-0.39
2022-12-08 20:8:13.5070,-0.31,0.07,1.35,-0.24,0.05,-0.39
2022-12-08 20:8:13.5170,-0.3,0.13,1.46,-0.41,0.04,-0.41
2022-12-08 20:8:13.5270,-0.3,0.13,1.46,-0.56,0.0,-0.43
2022-12-08 20:8:13.5370,-0.28,0.08,1.66,-0.62,-0.05,-0.44
2022-12-08 20:8:13.5460,-0.26,0.07,1.9,-0.54,-0.06,-0.44
2022-12-08 20:8:13.5570,-0.18,-0.02,1.97,-0.37,-0.05,-0.42
2022-12-08 20:8:13.5670,-0.12,-0.04,1.97,-0.16,-0.02,-0.37
2022-12-08 20:8:13.5760,-0.09,0.0,1.79,0.04,0.01,-0.3
2022-12-08 20:8:13.5860,-0.13,0.0,1.44,0.18,0.03,-0.25
2022-12-08 20:8:13.5960,-0.22,0.02,0.95,0.25,0.07,-0.21
2022-12-08 20:8:13.6060,-0.28,0.02,0.42,0.21,0.11,-0.21
2022-12-08 20:8:13.6160,-0.33,0.04,0.06,0.09,0.14,-0.2
2022-12-08 20:8:13.6260,-0.35,0.11,-0.14,-0.04,0.18,-0.19
2022-12-08 20:8:13.6360,-0.31,0.06,-0.31,-0.14,0.22,-0.18
2022-12-08 20:8:13.6460,-0.29,0.0,-0.34,-0.19,0.2,-0.18
2022-12-08 20:8:13.6560,-0.29,-0.12,-0.13,-0.17,0.15,-0.18
2022-12-08 20:8:13.6660,-0.25,-0.18,0.13,-0.08,0.09,-0.17
2022-12-08 20:8:13.6760,-0.17,-0.25,0.29,0.04,0.01,-0.16
2022-12-08 20:8:13.6860,-0.17,-0.32,0.41,0.13,-0.05,-0.14
2022-12-08 20:8:13.6960,-0.18,-0.31,0.26,0.17,-0.05,-0.12
2022-12-08 20:8:13.7060,-0.1,-0.33,-0.07,0.17,0.02,-0.11
2022-12-08 20:8:13.7160,0.0,-0.28,-0.46,0.14,0.12,-0.11
2022-12-08 20:8:13.7260,0.04,-0.18,-0.77,0.11,0.21,-0.13
2022-12-08 20:8:13.7360,0.01,-0.09,-0.98,0.08,0.26,-0.17
2022-12-08 20:8:13.7460,-0.04,-0.02,-1.11,0.06,0.26,-0.2
2022-12-08 20:8:13.7560,-0.09,0.08,-1.19,0.08,0.23,-0.23
2022-12-08 20:8:13.7660,-0.16,0.14,-1.26,0.14,0.14,-0.24
2022-12-08 20:8:13.7750,-0.27,0.13,-1.24,0.23,0.01,-0.23
2022-12-08 20:8:13.7850,-0.4,0.12,-1.16,0.33,-0.09,-0.19
2022-12-08 20:8:13.7950,-0.41,0.13,-1.28,0.41,-0.14,-0.14
2022-12-08 20:8:13.8050,-0.33,0.12,-1.51,0.45,-0.12,-0.11
2022-12-08 20:8:13.8150,-0.25,0.12,-1.73,0.42,-0.06,-0.1
2022-12-08 20:8:13.8250,-0.21,0.18,-1.97,0.34,0.08,-0.11
2022-12-08 20:8:13.8350,-0.13,0.17,-2.22,0.2,0.17,-0.12
2022-12-08 20:8:13.8450,-0.06,0.3,-2.15,0.07,0.22,-0.12
2022-12-08 20:8:13.8550,-0.04,0.43,-1.99,-0.01,0.24,-0.14
2022-12-08 20:8:13.8650,-0.08,0.35,-1.92,-0.02,0.18,-0.16
2022-12-08 20:8:13.8750,-0.21,0.37,-1.56,0.01,0.08,-0.16
2022-12-08 20:8:13.8850,-0.26,0.36,-1.27,0.06,-0.01,-0.15
2022-12-08 20:8:13.8950,-0.21,0.29,-1.15,0.1,-0.04,-0.13
2022-12-08 20:8:13.9050,-0.15,0.27,-1.19,0.1,-0.05,-0.1
2022-12-08 20:8:13.9150,-0.09,0.26,-1.19,0.07,-0.01,-0.08
2022-12-08 20:8:13.9250,-0.04,0.24,-1.19,0.02,0.07,-0.07
2022-12-08 20:8:13.9350,-0.02,0.22,-1.19,-0.05,0.13,-0.06
2022-12-08 20:8:13.9450,0.01,0.15,-1.07,-0.1,0.2,-0.06
2022-12-08 20:8:13.9550,0.0,0.16,-0.84,-0.09,0.27,-0.06
2022-12-08 20:8:13.9650,-0.03,0.27,-0.58,-0.03,0.33,-0.07
2022-12-08 20:8:13.9740,-0.11,0.31,-0.23,0.08,0.38,-0.06
2022-12-08 20:8:13.9840,-0.25,0.34,0.06,0.21,0.44,-0.02
2022-12-08 20:8:13.9940,-0.34,0.41,-0.03,0.28,0.43,0.04
2022-12-08 20:8:14.0040,-0.4,0.42,-0.02,0.27,0.37,0.07
2022-12-08 20:8:14.0140,-0.43,0.47,0.09,0.2,0.25,0.08
2022-12-08 20:8:14.0240,-0.44,0.47,0.19,0.11,0.09,0.04
2022-12-08 20:8:14.0340,-0.45,0.44,0.49,0.05,-0.06,0.01
2022-12-08 20:8:14.0440,-0.39,0.4,0.83,0.05,-0.13,-0.01
2022-12-08 20:8:14.0540,-0.26,0.34,1.05,0.09,-0.08,-0.0
2022-12-08 20:8:14.0640,-0.33,0.37,1.11,0.14,0.02,0.04
2022-12-08 20:8:14.0740,-0.55,0.52,1.01,0.15,0.06,0.09
2022-12-08 20:8:14.0840,-0.72,0.49,1.03,0.09,0.02,0.16
2022-12-08 20:8:14.0940,-0.8,0.5,1.03,-0.04,-0.05,0.18
2022-12-08 20:8:14.1040,-0.61,0.5,1.05,-0.22,-0.16,0.13
2022-12-08 20:8:14.1140,-0.24,0.32,1.25,-0.4,-0.33,0.03
2022-12-08 20:8:14.1240,-0.02,0.17,1.84,-0.49,-0.47,-0.11
2022-12-08 20:8:14.1340,0.1,-0.01,2.46,-0.47,-0.52,-0.24
2022-12-08 20:8:14.1440,0.15,-0.25,2.8,-0.37,-0.46,-0.32
2022-12-08 20:8:14.1540,-0.04,-0.44,2.93,-0.22,-0.33,-0.31
2022-12-08 20:8:14.1640,-0.27,-0.52,2.78,-0.07,-0.15,-0.21
2022-12-08 20:8:14.1740,-0.47,-0.44,2.34,0.03,0.01,-0.02
2022-12-08 20:8:14.1840,-0.59,-0.34,1.92,0.09,0.15,0.18
2022-12-08 20:8:14.1940,-0.63,-0.26,1.46,0.1,0.21,0.34
2022-12-08 20:8:14.2030,-0.72,-0.13,1.08,0.09,0.22,0.42
2022-12-08 20:8:14.2130,-0.78,-0.03,0.83,0.07,0.19,0.42
2022-12-08 20:8:14.2230,-0.72,0.0,0.59,0.04,0.14,0.37
2022-12-08 20:8:14.2330,-0.67,-0.01,0.39,-0.0,0.06,0.27
2022-12-08 20:8:14.2430,-0.63,-0.1,0.26,-0.06,-0.02,0.18
2022-12-08 20:8:14.2530,-0.65,-0.19,0.13,-0.11,-0.09,0.11
2022-12-08 20:8:14.2630,-0.71,-0.21,0.01,-0.13,-0.13,0.08
2022-12-08 20:8:14.2730,-0.72,-0.32,-0.06,-0.11,-0.15,0.09
2022-12-08 20:8:14.2830,-0.78,-0.38,-0.12,-0.06,-0.18,0.12
2022-12-08 20:8:14.2930,-0.89,-0.41,-0.11,0.01,-0.21,0.18
2022-12-08 20:8:14.3030,-0.95,-0.44,-0.14,0.12,-0.19,0.25
2022-12-08 20:8:14.3130,-0.94,-0.48,-0.47,0.2,-0.16,0.33
2022-12-08 20:8:14.3230,-0.88,-0.48,-0.78,0.22,-0.17,0.37
2022-12-08 20:8:14.3330,-0.79,-0.39,-0.92,0.18,-0.17,0.37
2022-12-08 20:8:14.3430,-0.6,-0.32,-1.15,0.11,-0.12,0.32
2022-12-08 20:8:14.3530,-0.35,-0.23,-1.37,0.02,-0.07,0.23
2022-12-08 20:8:14.3630,-0.13,-0.15,-1.47,-0.04,-0.02,0.12
2022-12-08 20:8:14.3730,-0.04,-0.1,-1.44,-0.07,-0.03,0.01
2022-12-08 20:8:14.3830,-0.16,-0.11,-1.27,-0.04,-0.11,-0.05
2022-12-08 20:8:14.3930,-0.42,-0.07,-0.91,0.06,-0.14,-0.06
2022-12-08 20:8:14.4030,-0.53,-0.17,-1.02,0.18,-0.14,-0.04
2022-12-08 20:8:14.4120,-0.55,-0.36,-1.27,0.24,-0.15,0.02
2022-12-08 20:8:14.4220,-0.61,-0.26,-1.33,0.23,-0.12,0.08
2022-12-08 20:8:14.4320,-0.62,-0.21,-1.57,0.17,-0.06,0.1
2022-12-08 20:8:14.4420,-0.56,-0.24,-1.78,0.09,0.02,0.1
2022-12-08 20:8:14.4520,-0.49,-0.1,-1.83,0.01,0.12,0.09
2022-12-08 20:8:14.4620,-0.4,0.03,-1.84,-0.04,0.18,0.05
2022-12-08 20:8:14.4720,-0.38,0.05,-1.49,-0.04,0.21,0.02
2022-12-08 20:8:14.4820,-0.44,0.12,-1.49,0.01,0.19,-0.01
2022-12-08 20:8:14.4920,-0.53,0.13,-1.33,0.08,0.15,-0.02
2022-12-08 20:8:14.5020,-0.63,0.11,-1.23,0.15,0.08,-0.02
2022-12-08 20:8:14.5120,-0.74,0.13,-1.15,0.21,0.02,-0.0
2022-12-08 20:8:14.5220,-0.72,0.16,-1.14,0.23,-0.02,0.0
2022-12-08 20:8:14.5320,-0.65,0.18,-1.12,0.25,-0.04,-0.0
2022-12-08 20:8:14.5420,-0.67,0.25,-1.04,0.26,-0.02,-0.01
2022-12-08 20:8:14.5520,-0.72,0.34,-0.96,0.27,-0.01,0.0
2022-12-08 20:8:14.5620,-0.72,0.33,-0.85,0.25,0.02,0.02
2022-12-08 20:8:14.5720,-0.73,0.34,-0.77,0.2,0.04,0.04
2022-12-08 20:8:14.5820,-0.7,0.36,-0.61,0.14,0.04,0.04
2022-12-08 20:8:14.5920,-0.65,0.32,-0.38,0.09,0.02,0.02
2022-12-08 20:8:14.6020,-0.55,0.29,-0.06,0.07,-0.05,-0.02
2022-12-08 20:8:14.6110,-0.44,0.23,0.39,0.07,-0.15,-0.07
2022-12-08 20:8:14.6220,-0.34,0.13,0.8,0.06,-0.25,-0.12
2022-12-08 20:8:14.6310,-0.19,0.02,1.1,0.03,-0.31,-0.17
2022-12-08 20:8:14.6410,0.03,-0.08,1.26,0.0,-0.3,-0.22
2022-12-08 20:8:14.6510,0.11,-0.23,1.37,-0.01,-0.21,-0.26
2022-12-08 20:8:14.6610,0.07,-0.29,1.42,0.02,-0.03,-0.25
2022-12-08 20:8:14.6710,-0.06,-0.24,1.27,0.09,0.19,-0.17
2022-12-08 20:8:14.6810,-0.37,-0.01,1.0,0.14,0.32,-0.07
2022-12-08 20:8:14.6910,-0.64,0.13,0.79,0.12,0.33,0.02
2022-12-08 20:8:14.7010,-0.78,0.14,0.63,0.01,0.25,0.07
2022-12-08 20:8:14.7110,-0.75,0.27,0.59,-0.15,0.15,0.06
2022-12-08 20:8:14.7210,-0.54,0.29,0.5,-0.33,0.01,-0.01
2022-12-08 20:8:14.7310,-0.31,0.23,0.63,-0.49,-0.14,-0.12
2022-12-08 20:8:14.7410,-0.07,0.17,0.99,-0.56,-0.22,-0.26
2022-12-08 20:8:14.7510,0.15,0.05,1.26,-0.54,-0.19,-0.39
2022-12-08 20:8:14.7610,0.24,-0.05,1.37,-0.45,-0.1,-0.45
2022-12-08 20:8:14.7710,0.18,-0.12,1.39,-0.34,0.04,-0.43
2022-12-08 20:8:14.7810,-0.01,-0.07,1.24,-0.24,0.15,-0.34
2022-12-08 20:8:14.7900,-0.23,0.03,0.99,-0.19,0.21,-0.22
2022-12-08 20:8:14.8000,-0.43,0.09,0.74,-0.2,0.2,-0.12
2022-12-08 20:8:14.8110,-0.56,0.15,0.61,-0.23,0.12,-0.06
2022-12-08 20:8:14.8200,-0.57,0.21,0.63,-0.26,0.01,-0.06
2022-12-08 20:8:14.8300,-0.39,0.17,0.75,-0.27,-0.05,-0.09
2022-12-08 20:8:14.8400,-0.15,0.14,0.78,-0.23,-0.08,-0.15
2022-12-08 20:8:14.8500,0.04,0.07,0.89,-0.15,-0.09,-0.2
2022-12-08 20:8:14.8600,0.09,0.0,0.98,-0.07,-0.07,-0.21
2022-12-08 20:8:14.8700,0.01,0.0,0.86,-0.0,-0.04,-0.2
2022-12-08 20:8:14.8800,-0.07,-0.03,0.61,0.04,-0.01,-0.16
2022-12-08 20:8:14.8900,-0.14,-0.09,0.3,0.06,0.02,-0.11
2022-12-08 20:8:14.9000,-0.19,-0.08,-0.03,0.07,0.05,-0.06
2022-12-08 20:8:14.9100,-0.17,-0.05,-0.36,0.09,0.07,-0.03
2022-12-08 20:8:14.9200,-0.07,-0.02,-0.63,0.13,0.11,-0.02
2022-12-08 20:8:14.9300,0.01,0.03,-0.9,0.16,0.13,-0.02
2022-12-08 20:8:14.9400,0.08,0.08,-1.1,0.19,0.14,-0.05
2022-12-08 20:8:14.9500,0.12,0.12,-1.23,0.2,0.16,-0.11
2022-12-08 20:8:14.9600,0.09,0.19,-1.46,0.18,0.21,-0.17
2022-12-08 20:8:14.9700,-0.06,0.34,-1.95,0.14,0.27,-0.22
2022-12-08 20:8:14.9800,-0.17,0.37,-2.01,0.08,0.29,-0.26
2022-12-08 20:8:14.9900,-0.39,0.37,-1.78,0.05,0.25,-0.28
2022-12-08 20:8:14.9990,-0.39,0.37,-1.78,0.06,0.19,-0.27
2022-12-08 20:8:15.0090,-0.52,0.38,-1.67,0.09,0.11,-0.23
2022-12-08 20:8:15.0190,-0.54,0.32,-1.54,0.12,-0.0,-0.18
2022-12-08 20:8:15.0290,-0.53,0.27,-1.38,0.11,-0.09,-0.14
2022-12-08 20:8:15.0390,-0.48,0.24,-1.32,0.09,-0.14,-0.12
2022-12-08 20:8:15.0490,-0.38,0.23,-1.22,0.05,-0.14,-0.12
2022-12-08 20:8:15.0590,-0.21,0.25,-1.14,-0.01,-0.13,-0.13
2022-12-08 20:8:15.0690,-0.05,0.24,-0.93,-0.05,-0.08,-0.13
2022-12-08 20:8:15.0790,0.07,0.27,-0.7,-0.05,-0.01,-0.14
2022-12-08 20:8:15.0890,0.13,0.28,-0.53,-0.02,0.05,-0.14
2022-12-08 20:8:15.0990,0.13,0.25,-0.22,0.05,0.11,-0.14
2022-12-08 20:8:15.1090,0.09,0.28,0.01,0.15,0.14,-0.12
2022-12-08 20:8:15.1190,0.01,0.23,0.12,0.24,0.17,-0.08
2022-12-08 20:8:15.1290,-0.09,0.22,0.22,0.33,0.19,-0.02
2022-12-08 20:8:15.1390,-0.17,0.21,0.19,0.4,0.21,0.04
2022-12-08 20:8:15.1490,-0.24,0.19,0.1,0.41,0.22,0.09
2022-12-08 20:8:15.1590,-0.34,0.28,-0.05,0.39,0.2,0.13
2022-12-08 20:8:15.1690,-0.41,0.3,-0.06,0.35,0.16,0.15
2022-12-08 20:8:15.1790,-0.46,0.36,-0.04,0.31,0.09,0.16
2022-12-08 20:8:15.1890,-0.4,0.4,0.1,0.27,0.04,0.15
2022-12-08 20:8:15.1990,-0.33,0.42,0.18,0.22,-0.01,0.14
2022-12-08 20:8:15.2090,-0.28,0.47,0.31,0.14,-0.07,0.11
2022-12-08 20:8:15.2200,-0.19,0.47,0.5,0.05,-0.13,0.07
2022-12-08 20:8:15.2280,-0.13,0.42,0.7,-0.03,-0.17,0.02
2022-12-08 20:8:15.2380,-0.08,0.38,0.94,-0.06,-0.17,-0.02
2022-12-08 20:8:15.2480,-0.08,0.31,1.18,-0.04,-0.13,-0.03
2022-12-08 20:8:15.2580,-0.22,0.33,1.37,0.04,-0.04,0.03
2022-12-08 20:8:15.2680,-0.33,0.48,1.35,0.09,0.03,0.09
2022-12-08 20:8:15.2780,-0.27,0.44,1.19,0.04,0.07,0.13
2022-12-08 20:8:15.2880,-0.18,0.39,1.12,-0.08,0.08,0.13
2022-12-08 20:8:15.2980,-0.1,0.48,0.92,-0.26,0.04,0.07
2022-12-08 20:8:15.3080,0.05,0.43,1.0,-0.41,-0.02,-0.03
2022-12-08 20:8:15.3180,0.06,0.34,1.33,-0.45,-0.07,-0.12
2022-12-08 20:8:15.3280,-0.05,0.31,1.7,-0.39,-0.07,-0.17
2022-12-08 20:8:15.3380,-0.16,0.14,1.9,-0.26,-0.01,-0.15
2022-12-08 20:8:15.3480,-0.29,0.04,1.85,-0.13,0.08,-0.07
2022-12-08 20:8:15.3580,-0.44,-0.01,1.62,-0.01,0.18,0.03
2022-12-08 20:8:15.3680,-0.56,-0.07,1.27,0.07,0.25,0.13
2022-12-08 20:8:15.3780,-0.7,-0.13,0.93,0.1,0.27,0.2
2022-12-08 20:8:15.3880,-0.87,-0.17,0.67,0.1,0.23,0.25
2022-12-08 20:8:15.3980,-0.98,-0.15,0.42,0.06,0.18,0.26
2022-12-08 20:8:15.4080,-0.97,-0.16,0.12,0.01,0.09,0.24
2022-12-08 20:8:15.4180,-0.95,-0.18,-0.03,-0.03,-0.01,0.21
2022-12-08 20:8:15.4280,-1.0,-0.2,-0.06,-0.04,-0.11,0.18
2022-12-08 20:8:15.4380,-0.99,-0.27,-0.08,-0.03,-0.15,0.16
2022-12-08 20:8:15.4480,-0.9,-0.37,-0.21,-0.03,-0.17,0.14
2022-12-08 20:8:15.4580,-0.83,-0.46,-0.29,-0.03,-0.17,0.14
2022-12-08 20:8:15.4680,-0.83,-0.53,-0.42,-0.04,-0.14,0.14
2022-12-08 20:8:15.4770,-0.83,-0.53,-0.42,-0.04,-0.11,0.14
2022-12-08 20:8:15.4870,-0.84,-0.55,-0.53,-0.05,-0.09,0.13
2022-12-08 20:8:15.4970,-0.82,-0.57,-0.58,-0.06,-0.1,0.12
2022-12-08 20:8:15.5070,-0.84,-0.62,-0.49,-0.04,-0.13,0.11
2022-12-08 20:8:15.5170,-0.88,-0.64,-0.33,0.04,-0.11,0.13
2022-12-08 20:8:15.5270,-0.85,-0.67,-0.42,0.13,-0.09,0.16
2022-12-08 20:8:15.5370,-0.82,-0.75,-0.55,0.2,-0.08,0.21
2022-12-08 20:8:15.5470,-0.84,-0.64,-0.61,0.24,-0.05,0.25
2022-12-08 20:8:15.5570,-0.78,-0.55,-0.89,0.24,-0.01,0.27
2022-12-08 20:8:15.5670,-0.67,-0.49,-1.2,0.2,0.03,0.28
2022-12-08 20:8:15.5770,-0.56,-0.34,-1.47,0.14,0.06,0.26
2022-12-08 20:8:15.5870,-0.46,-0.22,-1.63,0.07,0.08,0.2
2022-12-08 20:8:15.5970,-0.35,-0.15,-1.67,0.02,0.06,0.12
2022-12-08 20:8:15.6070,-0.31,-0.07,-1.56,0.01,0.04,0.04
2022-12-08 20:8:15.6170,-0.36,-0.03,-1.39,0.03,-0.03,-0.03
2022-12-08 20:8:15.6270,-0.5,-0.06,-1.09,0.07,-0.08,-0.05
2022-12-08 20:8:15.6360,-0.62,-0.06,-0.9,0.12,-0.07,-0.01
2022-12-08 20:8:15.6460,-0.65,-0.07,-0.95,0.15,-0.02,0.05
2022-12-08 20:8:15.6570,-0.63,-0.09,-1.02,0.17,0.03,0.1
2022-12-08 20:8:15.6660,-0.6,-0.1,-1.01,0.16,0.09,0.13
2022-12-08 20:8:15.6760,-0.42,-0.01,-1.01,0.16,0.15,0.12
2022-12-08 20:8:15.6860,-0.42,-0.01,-1.01,0.17,0.18,0.08
2022-12-08 20:8:15.6960,-0.31,0.04,-0.97,0.18,0.19,0.04
2022-12-08 20:8:15.7060,-0.27,0.09,-0.86,0.2,0.16,-0.02
2022-12-08 20:8:15.7160,-0.34,0.12,-0.77,0.23,0.12,-0.05
2022-12-08 20:8:15.7260,-0.39,0.09,-0.71,0.26,0.06,-0.07
2022-12-08 20:8:15.7360,-0.5,0.04,-0.59,0.27,-0.01,-0.06
2022-12-08 20:8:15.7460,-0.58,0.04,-0.48,0.27,-0.06,-0.04
2022-12-08 20:8:15.7560,-0.6,0.01,-0.35,0.28,-0.06,-0.01
2022-12-08 20:8:15.7660,-0.61,0.01,-0.31,0.27,-0.05,0.01
2022-12-08 20:8:15.7760,-0.6,0.02,-0.19,0.27,-0.04,0.03
2022-12-08 20:8:15.7860,-0.56,0.04,0.03,0.23,-0.04,0.03
2022-12-08 20:8:15.7960,-0.49,0.01,0.23,0.15,-0.05,0.03
2022-12-08 20:8:15.8060,-0.35,-0.01,0.4,0.06,-0.03,-0.01
2022-12-08 20:8:15.8160,-0.22,-0.03,0.51,-0.0,-0.0,-0.04
2022-12-08 20:8:15.8260,-0.18,-0.07,0.67,-0.03,0.06,-0.06
2022-12-08 20:8:15.8360,-0.29,0.03,0.7,-0.01,0.14,-0.05
2022-12-08 20:8:15.8460,-0.53,0.24,0.54,-0.0,0.13,-0.03
2022-12-08 20:8:15.8560,-0.7,0.27,0.44,-0.09,0.04,-0.02
2022-12-08 20:8:15.8660,-0.74,0.25,0.36,-0.28,-0.02,-0.02
2022-12-08 20:8:15.8760,-0.61,0.41,0.18,-0.53,-0.05,-0.09
2022-12-08 20:8:15.8850,-0.29,0.35,0.17,-0.76,-0.1,-0.21
2022-12-08 20:8:15.8950,0.03,0.16,0.68,-0.88,-0.21,-0.38
2022-12-08 20:8:15.9050,0.16,-0.05,1.64,-0.85,-0.25,-0.54
2022-12-08 20:8:15.9150,0.18,-0.35,2.3,-0.68,-0.19,-0.62
2022-12-08 20:8:15.9250,0.06,-0.46,2.43,-0.44,-0.01,-0.58
2022-12-08 20:8:15.9350,-0.1,-0.45,2.09,-0.22,0.22,-0.41
2022-12-08 20:8:15.9450,-0.28,-0.31,1.56,-0.07,0.41,-0.15
2022-12-08 20:8:15.9550,-0.44,-0.03,1.08,0.02,0.53,0.09
2022-12-08 20:8:15.9650,-0.6,0.22,0.66,0.07,0.6,0.23
2022-12-08 20:8:15.9750,-0.69,0.25,0.2,0.07,0.55,0.29
2022-12-08 20:8:15.9850,-0.68,0.36,0.04,0.04,0.38,0.27
2022-12-08 20:8:15.9950,-0.54,0.41,0.13,0.02,0.16,0.22
2022-12-08 20:8:16.0050,-0.32,0.4,0.17,0.03,-0.06,0.13
2022-12-08 20:8:16.0150,-0.06,0.3,0.14,0.06,-0.27,0.06
2022-12-08 20:8:16.0250,0.2,0.24,0.14,0.05,-0.41,0.0
2022-12-08 20:8:16.0350,0.36,0.27,0.1,0.02,-0.45,-0.07
2022-12-08 20:8:16.0440,0.44,0.23,-0.03,-0.03,-0.39,-0.13
2022-12-08 20:8:16.0550,0.51,0.22,-0.15,-0.09,-0.25,-0.18
2022-12-08 20:8:16.0650,0.64,0.2,-0.23,-0.13,-0.1,-0.22
2022-12-08 20:8:16.0740,0.68,0.1,-0.19,-0.12,-0.0,-0.25
2022-12-08 20:8:16.0840,0.56,0.02,-0.04,-0.05,0.05,-0.24
2022-12-08 20:8:16.0940,0.38,-0.03,0.04,0.04,0.04,-0.21
2022-12-08 20:8:16.1040,0.28,-0.05,-0.02,0.15,0.04,-0.19
2022-12-08 20:8:16.1140,0.12,-0.18,-0.73,0.23,0.04,-0.18
2022-12-08 20:8:16.1240,0.12,-0.18,-0.73,0.26,0.01,-0.18
2022-12-08 20:8:16.1340,0.06,-0.1,-1.0,0.23,0.02,-0.2
2022-12-08 20:8:16.1440,0.07,-0.08,-1.41,0.15,0.05,-0.25
2022-12-08 20:8:16.1540,0.04,-0.05,-1.76,0.05,0.1,-0.28
2022-12-08 20:8:16.1640,-0.05,0.0,-1.92,-0.03,0.14,-0.3
2022-12-08 20:8:16.1740,-0.18,0.0,-1.92,-0.06,0.13,-0.29
2022-12-08 20:8:16.1840,-0.31,-0.02,-1.74,-0.03,0.1,-0.26
2022-12-08 20:8:16.1940,-0.44,-0.07,-1.48,0.03,0.04,-0.19
2022-12-08 20:8:16.2040,-0.53,-0.09,-1.28,0.11,0.0,-0.12
2022-12-08 20:8:16.2140,-0.53,-0.18,-1.38,0.13,-0.03,-0.07
2022-12-08 20:8:16.2240,-0.39,-0.03,-1.28,0.11,-0.05,-0.04
2022-12-08 20:8:16.2340,-0.39,-0.03,-1.28,0.04,-0.05,-0.05
2022-12-08 20:8:16.2440,-0.31,0.03,-1.28,-0.03,-0.05,-0.08
2022-12-08 20:8:16.2540,-0.27,0.06,-1.08,-0.07,-0.04,-0.1
2022-12-08 20:8:16.2630,-0.24,0.11,-0.89,-0.08,-0.05,-0.11
2022-12-08 20:8:16.2730,-0.27,0.05,-0.6,-0.04,-0.05,-0.11
2022-12-08 20:8:16.2830,-0.3,0.01,-0.34,0.02,-0.05,-0.1
2022-12-08 20:8:16.2940,-0.28,-0.02,-0.19,0.08,-0.04,-0.06
2022-12-08 20:8:16.3030,-0.28,0.0,-0.1,0.13,-0.01,-0.01
2022-12-08 20:8:16.3130,-0.31,0.0,-0.08,0.17,0.03,0.04
2022-12-08 20:8:16.3230,-0.34,0.02,-0.13,0.2,0.07,0.09
2022-12-08 20:8:16.3330,-0.38,0.04,-0.11,0.23,0.08,0.13
2022-12-08 20:8:16.3430,-0.41,0.08,0.0,0.23,0.07,0.14
2022-12-08 20:8:16.3530,-0.46,0.19,0.07,0.19,0.05,0.15
2022-12-08 20:8:16.3630,-0.38,0.36,0.11,0.14,0.05,0.12
2022-12-08 20:8:16.3730,-0.2,0.39,0.1,0.08,0.04,0.06
2022-12-08 20:8:16.3830,0.01,0.38,0.37,0.02,-0.0,-0.01
2022-12-08 20:8:16.3930,-0.01,0.36,0.75,-0.04,-0.06,-0.07
2022-12-08 20:8:16.4030,-0.13,0.31,1.08,-0.08,-0.11,-0.1
2022-12-08 20:8:16.4130,-0.24,0.19,1.37,-0.1,-0.11,-0.07
2022-12-08 20:8:16.4230,-0.35,0.09,1.58,-0.09,-0.04,0.02
2022-12-08 20:8:16.4330,-0.48,0.13,1.61,-0.04,0.14,0.15
2022-12-08 20:8:16.4430,-0.67,0.33,1.39,0.0,0.35,0.31
2022-12-08 20:8:16.4530,-0.88,0.49,0.96,-0.02,0.44,0.41
2022-12-08 20:8:16.4630,-1.05,0.54,0.91,-0.1,0.45,0.46
2022-12-08 20:8:16.4730,-1.13,0.67,0.74,-0.24,0.37,0.47
2022-12-08 20:8:16.4830,-0.99,0.8,0.68,-0.41,0.2,0.41
2022-12-08 20:8:16.4930,-0.75,0.73,0.9,-0.55,0.01,0.29
2022-12-08 20:8:16.5020,-0.52,0.6,1.25,-0.58,-0.19,0.15
2022-12-08 20:8:16.5120,-0.33,0.35,1.71,-0.51,-0.34,0.05
2022-12-08 20:8:16.5220,-0.27,0.1,2.07,-0.38,-0.38,0.02
2022-12-08 20:8:16.5320,-0.31,-0.02,2.07,-0.22,-0.32,0.07
2022-12-08 20:8:16.5420,-0.41,-0.18,1.86,-0.06,-0.2,0.17
2022-12-08 20:8:16.5520,-0.47,-0.27,1.59,0.06,-0.02,0.31
2022-12-08 20:8:16.5620,-0.42,-0.22,1.08,0.1,0.17,0.45
2022-12-08 20:8:16.5720,-0.38,-0.13,0.52,0.08,0.28,0.53
2022-12-08 20:8:16.5820,-0.42,0.04,0.15,0.02,0.28,0.55
2022-12-08 20:8:16.5920,-0.46,0.19,-0.06,-0.03,0.19,0.51
2022-12-08 20:8:16.6020,-0.45,0.22,-0.1,-0.07,0.03,0.41
2022-12-08 20:8:16.6120,-0.44,0.2,-0.1,-0.08,-0.14,0.31
2022-12-08 20:8:16.6220,-0.4,0.12,-0.09,-0.06,-0.28,0.23
2022-12-08 20:8:16.6320,-0.33,0.05,-0.13,-0.04,-0.38,0.2
2022-12-08 20:8:16.6420,-0.31,-0.08,-0.1,0.01,-0.4,0.2
2022-12-08 20:8:16.6520,-0.34,-0.15,-0.21,0.05,-0.35,0.21
2022-12-08 20:8:16.6620,-0.36,-0.2,-0.33,0.06,-0.25,0.24
2022-12-08 20:8:16.6720,-0.34,-0.19,-0.48,0.06,-0.11,0.27
2022-12-08 20:8:16.6820,-0.25,-0.14,-0.68,0.05,0.03,0.3
2022-12-08 20:8:16.6920,-0.18,-0.07,-0.82,0.04,0.11,0.3
2022-12-08 20:8:16.7020,-0.21,-0.05,-0.9,0.05,0.1,0.27
2022-12-08 20:8:16.7110,-0.28,0.0,-0.91,0.08,0.03,0.21
2022-12-08 20:8:16.7220,-0.34,0.01,-0.88,0.13,-0.05,0.15
2022-12-08 20:8:16.7310,-0.37,-0.01,-0.93,0.2,-0.1,0.1
2022-12-08 20:8:16.7410,-0.38,-0.04,-1.11,0.25,-0.14,0.06
2022-12-08 20:8:16.7510,-0.4,-0.09,-1.21,0.26,-0.12,0.04
2022-12-08 20:8:16.7610,-0.45,-0.06,-1.42,0.24,-0.06,0.03
2022-12-08 20:8:16.7710,-0.46,-0.04,-1.71,0.19,0.03,0.03
2022-12-08 20:8:16.7810,-0.47,-0.04,-1.88,0.11,0.1,0.03
2022-12-08 20:8:16.7910,-0.49,0.02,-1.99,0.03,0.14,0.02
2022-12-08 20:8:16.8010,-0.48,0.06,-1.98,-0.03,0.14,-0.0
2022-12-08 20:8:16.8110,-0.49,0.06,-1.82,-0.06,0.07,-0.04
2022-12-08 20:8:16.8210,-0.52,0.03,-1.54,-0.03,-0.02,-0.09
2022-12-08 20:8:16.8310,-0.56,-0.01,-1.24,0.04,-0.07,-0.12
2022-12-08 20:8:16.8410,-0.53,-0.06,-1.17,0.11,-0.07,-0.12
2022-12-08 20:8:16.8510,-0.53,-0.12,-1.29,0.13,-0.02,-0.09
2022-12-08 20:8:16.8610,-0.53,-0.12,-1.29,0.1,0.05,-0.07
2022-12-08 20:8:16.8710,-0.55,-0.1,-1.43,0.04,0.12,-0.05
2022-12-08 20:8:16.8800,-0.58,-0.09,-1.44,-0.02,0.15,-0.03
2022-12-08 20:8:16.8900,-0.72,-0.01,-1.02,-0.06,0.12,-0.03
2022-12-08 20:8:16.9010,-0.72,-0.01,-1.02,-0.04,0.04,-0.03
2022-12-08 20:8:16.9100,-0.82,0.0,-0.6,0.04,-0.06,-0.03
2022-12-08 20:8:16.9200,-0.81,-0.08,0.02,0.13,-0.12,-0.02
2022-12-08 20:8:16.9300,-0.81,-0.08,0.02,0.2,-0.13,0.0
2022-12-08 20:8:16.9400,-0.78,-0.01,0.09,0.22,-0.1,0.02
2022-12-08 20:8:16.9500,-0.68,0.03,0.07,0.18,-0.06,0.03
2022-12-08 20:8:16.9600,-0.6,0.09,0.1,0.08,-0.05,0.03
2022-12-08 20:8:16.9700,-0.42,0.23,0.48,-0.03,-0.06,0.02
2022-12-08 20:8:16.9800,-0.42,0.23,0.48,-0.12,-0.09,-0.02
2022-12-08 20:8:16.9900,-0.36,0.21,0.91,-0.16,-0.13,-0.07
2022-12-08 20:8:17.0000,-0.26,0.14,1.41,-0.15,-0.18,-0.12
2022-12-08 20:8:17.0100,-0.12,0.05,1.88,-0.08,-0.14,-0.14
2022-12-08 20:8:17.0200,-0.12,0.08,1.97,0.0,0.01,-0.12
2022-12-08 20:8:17.0300,-0.33,0.35,1.72,0.06,0.13,-0.09
2022-12-08 20:8:17.0400,-0.52,0.51,1.44,0.04,0.13,-0.09
2022-12-08 20:8:17.0500,-0.55,0.51,1.28,-0.07,0.04,-0.1
2022-12-08 20:8:17.0600,-0.4,0.47,1.33,-0.25,-0.08,-0.15
2022-12-08 20:8:17.0700,-0.4,0.47,1.33,-0.39,-0.15,-0.24
2022-12-08 20:8:17.0800,-0.12,0.34,1.44,-0.47,-0.19,-0.32
2022-12-08 20:8:17.0900,0.14,0.23,1.85,-0.43,-0.17,-0.39
2022-12-08 20:8:17.0990,0.3,0.03,2.12,-0.28,-0.05,-0.41
2022-12-08 20:8:17.1100,0.32,-0.09,2.03,-0.1,0.13,-0.37
2022-12-08 20:8:17.1190,0.2,-0.01,1.71,0.07,0.3,-0.3
2022-12-08 20:8:17.1290,0.01,0.05,1.27,0.19,0.43,-0.19
2022-12-08 20:8:17.1390,-0.23,0.22,0.76,0.24,0.48,-0.09
2022-12-08 20:8:17.1490,-0.37,0.46,0.24,0.25,0.43,-0.01
2022-12-08 20:8:17.1590,-0.4,0.61,-0.03,0.22,0.29,0.02
2022-12-08 20:8:17.1690,-0.41,0.68,-0.06,0.18,0.12,-0.0
2022-12-08 20:8:17.1790,-0.3,0.67,-0.11,0.13,-0.06,-0.07
2022-12-08 20:8:17.1890,-0.07,0.51,-0.05,0.06,-0.2,-0.15
2022-12-08 20:8:17.1990,0.14,0.31,0.09,-0.01,-0.32,-0.24
2022-12-08 20:8:17.2090,0.14,0.31,0.09,-0.07,-0.39,-0.33
2022-12-08 20:8:17.2190,0.16,0.17,0.23,-0.1,-0.38,-0.36
2022-12-08 20:8:17.2290,0.17,0.05,0.24,-0.1,-0.3,-0.35
2022-12-08 20:8:17.2390,0.24,-0.19,-0.04,-0.1,-0.17,-0.3
2022-12-08 20:8:17.2490,0.26,-0.23,-0.27,-0.1,-0.03,-0.24
2022-12-08 20:8:17.2590,0.26,-0.23,-0.27,-0.1,0.08,-0.17
2022-12-08 20:8:17.2690,0.26,-0.27,-0.44,-0.1,0.14,-0.14
2022-12-08 20:8:17.2790,0.27,-0.29,-0.55,-0.09,0.14,-0.13
2022-12-08 20:8:17.2890,0.2,-0.3,-0.5,-0.07,0.09,-0.15
2022-12-08 20:8:17.2990,0.12,-0.31,-0.51,-0.01,-0.01,-0.17
2022-12-08 20:8:17.3080,-0.01,-0.35,-0.44,0.07,-0.07,-0.19
2022-12-08 20:8:17.3180,-0.11,-0.27,-0.57,0.16,-0.1,-0.19
2022-12-08 20:8:17.3280,-0.14,-0.25,-0.85,0.2,-0.08,-0.2
2022-12-08 20:8:17.3380,-0.17,-0.2,-1.12,0.18,-0.04,-0.21
2022-12-08 20:8:17.3480,-0.23,-0.13,-1.39,0.14,0.03,-0.21
2022-12-08 20:8:17.3580,-0.28,-0.09,-1.61,0.08,0.11,-0.2
2022-12-08 20:8:17.3680,-0.34,-0.03,-1.73,0.04,0.17,-0.18
2022-12-08 20:8:17.3780,-0.44,0.12,-1.67,0.02,0.2,-0.15
2022-12-08 20:8:17.3880,-0.44,0.12,-1.67,0.03,0.18,-0.12
2022-12-08 20:8:17.3980,-0.48,0.16,-1.48,0.04,0.12,-0.09
2022-12-08 20:8:17.4080,-0.47,0.15,-1.37,0.05,0.02,-0.06
2022-12-08 20:8:17.4180,-0.47,0.13,-1.15,0.07,-0.1,-0.03
2022-12-08 20:8:17.4280,-0.42,0.15,-0.84,0.09,-0.17,-0.01
2022-12-08 20:8:17.4380,-0.28,0.17,-0.71,0.11,-0.19,-0.02
2022-12-08 20:8:17.4480,-0.19,0.15,-0.65,0.11,-0.15,-0.03
2022-12-08 20:8:17.4580,-0.11,0.16,-0.62,0.09,-0.09,-0.04
2022-12-08 20:8:17.4680,-0.02,0.07,-0.48,0.08,-0.0,-0.05
2022-12-08 20:8:17.4780,0.02,0.01,-0.33,0.12,0.11,-0.04
2022-12-08 20:8:17.4880,0.06,-0.03,-0.14,0.21,0.2,-0.02
2022-12-08 20:8:17.4970,0.02,-0.13,0.03,0.35,0.22,0.03
2022-12-08 20:8:17.5080,-0.18,-0.18,0.25,0.5,0.21,0.1
2022-12-08 20:8:17.5170,-0.38,-0.19,0.13,0.61,0.18,0.19
2022-12-08 20:8:17.5280,-0.46,-0.23,-0.12,0.63,0.15,0.27
2022-12-08 20:8:17.5370,-0.42,-0.1,-0.33,0.56,0.14,0.29
2022-12-08 20:8:17.5470,-0.34,0.02,-0.62,0.44,0.13,0.28
2022-12-08 20:8:17.5570,-0.29,0.11,-0.66,0.31,0.07,0.23
2022-12-08 20:8:17.5670,-0.2,0.22,-0.15,0.18,-0.02,0.17
2022-12-08 20:8:17.5770,-0.2,0.22,-0.15,0.1,-0.1,0.09
2022-12-08 20:8:17.5870,-0.04,0.08,0.57,0.06,-0.12,0.02
2022-12-08 20:8:17.5970,-0.04,0.08,0.57,0.04,-0.07,-0.02
2022-12-08 20:8:17.6070,0.02,-0.01,0.72,0.02,0.08,-0.04
2022-12-08 20:8:17.6170,-0.05,0.06,0.7,0.01,0.26,-0.02
2022-12-08 20:8:17.6270,-0.28,0.2,0.63,-0.04,0.34,0.03
2022-12-08 20:8:17.6370,-0.44,0.18,0.63,-0.13,0.3,0.08
2022-12-08 20:8:17.6470,-0.55,0.12,0.73,-0.25,0.17,0.1
2022-12-08 20:8:17.6570,-0.59,0.2,0.9,-0.38,-0.01,0.09
2022-12-08 20:8:17.6670,-0.5,0.15,1.24,-0.46,-0.16,0.04
2022-12-08 20:8:17.6770,-0.3,0.05,1.6,-0.51,-0.28,-0.04
2022-12-08 20:8:17.6870,-0.11,-0.11,2.06,-0.49,-0.32,-0.12
2022-12-08 20:8:17.6970,0.02,-0.33,2.43,-0.42,-0.24,-0.18
2022-12-08 20:8:17.7070,0.02,-0.47,2.45,-0.33,-0.12,-0.16
2022-12-08 20:8:17.7170,-0.05,-0.59,2.41,-0.24,0.03,-0.07
2022-12-08 20:8:17.7270,-0.11,-0.62,2.22,-0.16,0.19,0.07
2022-12-08 20:8:17.7360,-0.24,-0.61,1.8,-0.09,0.33,0.21
2022-12-08 20:8:17.7470,-0.39,-0.55,1.39,-0.04,0.41,0.32
2022-12-08 20:8:17.7560,-0.56,-0.42,0.96,-0.01,0.4,0.39
2022-12-08 20:8:17.7660,-0.64,-0.29,0.72,0.02,0.35,0.4
2022-12-08 20:8:17.7760,-0.62,-0.17,0.48,0.04,0.27,0.38
2022-12-08 20:8:17.7860,-0.56,-0.13,0.07,0.02,0.14,0.31
2022-12-08 20:8:17.7960,-0.56,-0.13,0.07,-0.02,-0.01,0.24
2022-12-08 20:8:17.8060,-0.64,-0.12,-0.07,-0.07,-0.16,0.18
2022-12-08 20:8:17.8160,-0.68,-0.18,-0.12,-0.09,-0.27,0.17
2022-12-08 20:8:17.8260,-0.69,-0.24,-0.21,-0.09,-0.32,0.18
2022-12-08 20:8:17.8360,-0.71,-0.31,-0.32,-0.07,-0.32,0.21
2022-12-08 20:8:17.8460,-0.73,-0.34,-0.36,-0.06,-0.28,0.23
2022-12-08 20:8:17.8560,-0.68,-0.36,-0.42,-0.06,-0.24,0.24
2022-12-08 20:8:17.8660,-0.68,-0.42,-0.42,-0.05,-0.21,0.25
2022-12-08 20:8:17.8760,-0.72,-0.41,-0.39,-0.03,-0.16,0.29
2022-12-08 20:8:17.8860,-0.61,-0.36,-0.5,-0.03,-0.1,0.31
2022-12-08 20:8:17.8960,-0.42,-0.33,-0.68,-0.04,-0.02,0.31
2022-12-08 20:8:17.9060,-0.25,-0.22,-0.95,-0.07,0.04,0.26
2022-12-08 20:8:17.9160,-0.14,-0.07,-1.16,-0.05,0.1,0.2
2022-12-08 20:8:17.9260,-0.14,0.0,-1.39,0.0,0.16,0.12
2022-12-08 20:8:17.9360,-0.2,0.03,-1.59,0.09,0.18,0.06
2022-12-08 20:8:17.9460,-0.38,0.05,-1.68,0.15,0.18,0.04
2022-12-08 20:8:17.9550,-0.57,0.11,-1.83,0.18,0.18,0.05
2022-12-08 20:8:17.9650,-0.7,0.16,-2.05,0.18,0.17,0.08
2022-12-08 20:8:17.9760,-0.74,0.23,-2.14,0.14,0.16,0.12
2022-12-08 20:8:17.9850,-0.65,0.35,-2.33,0.08,0.14,0.13
2022-12-08 20:8:17.9950,-0.65,0.35,-2.33,0.0,0.11,0.12
2022-12-08 20:8:18.0050,-0.64,0.41,-2.18,-0.06,0.07,0.07
2022-12-08 20:8:18.0150,-0.62,0.43,-1.97,-0.11,-0.02,-0.0
2022-12-08 20:8:18.0250,-0.6,0.42,-1.56,-0.12,-0.1,-0.06
2022-12-08 20:8:18.0350,-0.53,0.42,-1.15,-0.11,-0.12,-0.11
2022-12-08 20:8:18.0450,-0.43,0.38,-0.91,-0.08,-0.09,-0.13
2022-12-08 20:8:18.0550,-0.31,0.37,-0.63,-0.03,-0.0,-0.17
2022-12-08 20:8:18.0650,-0.44,0.36,-0.2,0.01,0.08,-0.19
2022-12-08 20:8:18.0750,-0.44,0.36,-0.2,0.04,0.09,-0.19
2022-12-08 20:8:18.0850,-0.65,0.33,0.11,0.1,0.09,-0.15
2022-12-08 20:8:18.0950,-0.81,0.28,0.39,0.19,0.1,-0.06
2022-12-08 20:8:18.1050,-0.82,0.24,0.51,0.27,0.1,0.04
2022-12-08 20:8:18.1150,-0.77,0.2,0.57,0.33,0.1,0.11
2022-12-08 20:8:18.1250,-0.72,0.25,0.59,0.34,0.08,0.13
2022-12-08 20:8:18.1350,-0.64,0.25,0.57,0.33,0.06,0.12
2022-12-08 20:8:18.1450,-0.58,0.29,0.53,0.27,0.01,0.1
2022-12-08 20:8:18.1540,-0.5,0.32,0.55,0.22,-0.05,0.06
2022-12-08 20:8:18.1640,-0.36,0.28,0.74,0.19,-0.1,0.02
2022-12-08 20:8:18.1740,-0.34,0.29,0.91,0.19,-0.16,-0.03
2022-12-08 20:8:18.1840,-0.39,0.26,1.17,0.2,-0.19,-0.07
2022-12-08 20:8:18.1940,-0.32,0.16,1.37,0.2,-0.18,-0.1
2022-12-08 20:8:18.2040,-0.16,0.07,1.36,0.19,-0.12,-0.1
2022-12-08 20:8:18.2140,-0.1,0.06,1.37,0.2,-0.02,-0.08
2022-12-08 20:8:18.2240,-0.18,0.17,1.35,0.21,0.12,-0.05
2022-12-08 20:8:18.2340,-0.34,0.32,1.02,0.17,0.17,-0.02
2022-12-08 20:8:18.2440,-0.37,0.23,0.8,0.06,0.15,-0.02
2022-12-08 20:8:18.2540,-0.32,0.15,0.68,-0.12,0.05,-0.05
2022-12-08 20:8:18.2640,-0.23,0.28,0.73,-0.32,-0.08,-0.12
2022-12-08 20:8:18.2740,0.15,0.08,1.16,-0.44,-0.17,-0.24
2022-12-08 20:8:18.2840,0.21,-0.04,1.6,-0.46,-0.23,-0.34
2022-12-08 20:8:18.2940,0.21,-0.04,1.6,-0.36,-0.22,-0.42
2022-12-08 20:8:18.3040,0.22,-0.2,1.7,-0.19,-0.11,-0.42
2022-12-08 20:8:18.3140,0.17,-0.27,1.7,-0.01,0.06,-0.35
2022-12-08 20:8:18.3240,0.04,-0.28,1.37,0.13,0.22,-0.24
2022-12-08 20:8:18.3340,-0.14,-0.23,0.95,0.18,0.33,-0.12
2022-12-08 20:8:18.3440,-0.33,-0.07,0.5,0.16,0.38,-0.03
2022-12-08 20:8:18.3540,-0.38,0.06,0.11,0.11,0.36,0.02
2022-12-08 20:8:18.3640,-0.31,0.22,-0.02,0.08,0.28,0.01
2022-12-08 20:8:18.3740,-0.21,0.31,-0.08,0.07,0.13,-0.04
2022-12-08 20:8:18.3830,-0.08,0.29,0.02,0.08,-0.04,-0.13
2022-12-08 20:8:18.3930,0.12,0.24,0.13,0.1,-0.21,-0.23
2022-12-08 20:8:18.4030,0.29,0.15,0.2,0.1,-0.34,-0.32
2022-12-08 20:8:18.4140,0.41,0.06,0.17,0.05,-0.4,-0.4
2022-12-08 20:8:18.4230,0.44,-0.06,0.15,-0.02,-0.39,-0.44
2022-12-08 20:8:18.4330,0.4,-0.13,0.15,-0.07,-0.31,-0.45
2022-12-08 20:8:18.4430,0.37,-0.17,0.15,-0.1,-0.19,-0.43
2022-12-08 20:8:18.4530,0.34,-0.23,0.07,-0.1,-0.07,-0.4
2022-12-08 20:8:18.4630,0.34,-0.23,0.07,-0.07,0.04,-0.36
2022-12-08 20:8:18.4760,0.32,-0.22,-0.05,-0.02,0.1,-0.33
2022-12-08 20:8:18.4830,0.27,-0.25,-0.21,0.03,0.12,-0.31
2022-12-08 20:8:18.4930,0.23,-0.24,-0.37,0.08,0.13,-0.3
2022-12-08 20:8:18.5030,0.18,-0.19,-0.67,0.12,0.13,-0.29
2022-12-08 20:8:18.5130,0.13,-0.14,-1.02,0.12,0.13,-0.29
2022-12-08 20:8:18.5230,0.05,-0.08,-1.33,0.1,0.13,-0.3
2022-12-08 20:8:18.5330,-0.07,-0.04,-1.57,0.07,0.14,-0.29
2022-12-08 20:8:18.5430,-0.17,0.07,-1.79,0.04,0.12,-0.29
2022-12-08 20:8:18.5520,-0.23,0.05,-1.82,0.03,0.05,-0.29
2022-12-08 20:8:18.5630,-0.41,0.05,-1.59,0.05,0.02,-0.24
2022-12-08 20:8:18.5720,-0.47,0.15,-1.59,0.08,-0.01,-0.17
2022-12-08 20:8:18.5820,-0.43,0.11,-1.6,0.11,-0.04,-0.11
2022-12-08 20:8:18.5920,-0.44,0.14,-1.58,0.12,-0.08,-0.07
2022-12-08 20:8:18.6020,-0.43,0.2,-1.51,0.11,-0.11,-0.04
2022-12-08 20:8:18.6120,-0.32,0.23,-1.49,0.1,-0.11,-0.04
2022-12-08 20:8:18.6220,-0.13,0.28,-1.48,0.07,-0.1,-0.07
2022-12-08 20:8:18.6320,0.0,0.28,-1.36,0.06,-0.09,-0.12
2022-12-08 20:8:18.6420,-0.01,0.29,-1.19,0.06,-0.08,-0.16
2022-12-08 20:8:18.6520,-0.06,0.26,-1.01,0.08,-0.05,-0.17
2022-12-08 20:8:18.6620,-0.15,0.17,-0.85,0.11,-0.01,-0.15
2022-12-08 20:8:18.6720,-0.24,0.14,-0.8,0.14,0.02,-0.1
2022-12-08 20:8:18.6820,-0.35,0.07,-0.68,0.18,0.03,-0.03
2022-12-08 20:8:18.6920,-0.48,0.04,-0.59,0.21,0.04,0.03
2022-12-08 20:8:18.7020,-0.55,0.03,-0.49,0.24,0.03,0.09
2022-12-08 20:8:18.7120,-0.55,0.04,-0.39,0.26,0.04,0.14
2022-12-08 20:8:18.7220,-0.54,0.05,-0.33,0.27,0.04,0.17
2022-12-08 20:8:18.7320,-0.56,0.07,-0.3,0.25,0.03,0.19
2022-12-08 20:8:18.7420,-0.55,0.09,-0.23,0.19,0.03,0.18
2022-12-08 20:8:18.7520,-0.49,0.1,-0.14,0.14,0.04,0.15
2022-12-08 20:8:18.7620,-0.48,0.13,-0.06,0.08,0.02,0.14
2022-12-08 20:8:18.7710,-0.5,0.12,0.12,0.03,-0.03,0.13
2022-12-08 20:8:18.7810,-0.51,0.07,0.4,-0.01,-0.08,0.13
2022-12-08 20:8:18.7910,-0.46,0.01,0.57,-0.07,-0.09,0.13
2022-12-08 20:8:18.8010,-0.4,-0.06,0.72,-0.12,-0.04,0.14
2022-12-08 20:8:18.8110,-0.4,-0.07,0.74,-0.16,0.07,0.18
2022-12-08 20:8:18.8210,-0.44,0.08,0.68,-0.19,0.17,0.22
2022-12-08 20:8:18.8310,-0.42,0.12,0.65,-0.22,0.21,0.24
2022-12-08 20:8:18.8410,-0.39,0.12,0.68,-0.3,0.17,0.24
2022-12-08 20:8:18.8510,-0.36,0.19,0.77,-0.39,0.05,0.18
2022-12-08 20:8:18.8610,-0.34,0.19,1.02,-0.47,-0.11,0.1
2022-12-08 20:8:18.8710,-0.35,0.17,1.37,-0.5,-0.27,0.02
2022-12-08 20:8:18.8810,-0.44,0.1,1.78,-0.47,-0.36,-0.03
2022-12-08 20:8:18.8910,-0.53,0.0,2.13,-0.4,-0.36,-0.02
2022-12-08 20:8:18.9010,-0.6,-0.22,2.12,-0.29,-0.29,0.03
2022-12-08 20:8:18.9110,-0.6,-0.22,2.12,-0.18,-0.2,0.11
2022-12-08 20:8:18.9210,-0.69,-0.32,2.08,-0.08,-0.09,0.22
2022-12-08 20:8:18.9310,-0.77,-0.27,1.96,-0.02,0.05,0.32
2022-12-08 20:8:18.9410,-0.73,-0.3,1.53,-0.02,0.19,0.39
2022-12-08 20:8:18.9510,-0.72,-0.3,1.08,-0.05,0.26,0.41
2022-12-08 20:8:18.9610,-0.73,-0.17,0.81,-0.07,0.27,0.39
2022-12-08 20:8:18.9700,-0.7,-0.17,0.66,-0.08,0.2,0.33
2022-12-08 20:8:18.9810,-0.75,-0.24,0.66,-0.07,0.08,0.28
2022-12-08 20:8:18.9910,-0.83,-0.2,0.64,-0.06,-0.03,0.24
2022-12-08 20:8:19.0010,-0.82,-0.25,0.49,-0.07,-0.09,0.23
2022-12-08 20:8:19.0100,-0.72,-0.33,0.28,-0.09,-0.12,0.23
2022-12-08 20:8:19.0200,-0.67,-0.34,0.16,-0.1,-0.1,0.24
2022-12-08 20:8:19.0300,-0.55,-0.37,-0.07,-0.11,-0.06,0.26
2022-12-08 20:8:19.0400,-0.55,-0.37,-0.07,-0.11,-0.03,0.26
2022-12-08 20:8:19.0500,-0.47,-0.35,-0.17,-0.1,-0.0,0.26
2022-12-08 20:8:19.0600,-0.39,-0.36,-0.27,-0.08,0.01,0.25
2022-12-08 20:8:19.0700,-0.33,-0.34,-0.42,-0.07,0.0,0.25
2022-12-08 20:8:19.0800,-0.28,-0.34,-0.59,-0.05,-0.01,0.24
2022-12-08 20:8:19.0900,-0.18,-0.34,-0.8,-0.05,-0.01,0.22
2022-12-08 20:8:19.1000,-0.09,-0.29,-1.04,-0.05,-0.01,0.19
2022-12-08 20:8:19.1100,-0.09,-0.27,-1.24,-0.05,-0.05,0.14
2022-12-08 20:8:19.1200,-0.17,-0.19,-1.27,-0.04,-0.08,0.09
2022-12-08 20:8:19.1300,-0.27,-0.13,-1.29,-0.02,-0.09,0.06
2022-12-08 20:8:19.1400,-0.29,-0.1,-1.4,-0.01,-0.04,0.05
2022-12-08 20:8:19.1500,-0.3,-0.03,-1.53,-0.01,0.03,0.05
2022-12-08 20:8:19.1600,-0.31,0.02,-1.66,-0.04,0.09,0.05
2022-12-08 20:8:19.1700,-0.37,0.08,-1.69,-0.07,0.13,0.05
2022-12-08 20:8:19.1790,-0.42,0.21,-1.69,-0.09,0.15,0.06
2022-12-08 20:8:19.1900,-0.48,0.31,-1.66,-0.08,0.12,0.05
2022-12-08 20:8:19.1990,-0.54,0.37,-1.49,-0.05,0.04,0.03
2022-12-08 20:8:19.2090,-0.59,0.38,-1.07,-0.01,-0.03,0.0
2022-12-08 20:8:19.2190,-0.59,0.38,-1.07,0.04,-0.06,-0.02
2022-12-08 20:8:19.2290,-0.54,0.41,-1.04,0.09,-0.04,-0.04
2022-12-08 20:8:19.2390,-0.52,0.41,-1.02,0.1,-0.01,-0.04
2022-12-08 20:8:19.2490,-0.51,0.44,-1.01,0.08,0.04,-0.07
2022-12-08 20:8:19.2590,-0.5,0.46,-0.98,0.06,0.1,-0.08
2022-12-08 20:8:19.2690,-0.54,0.48,-0.91,0.04,0.15,-0.1
2022-12-08 20:8:19.2790,-0.58,0.48,-0.82,0.03,0.16,-0.12
2022-12-08 20:8:19.2890,-0.65,0.43,-0.57,0.04,0.16,-0.13
2022-12-08 20:8:19.2990,-0.77,0.34,0.05,0.08,0.12,-0.12
2022-12-08 20:8:19.3090,-0.77,0.34,0.05,0.16,0.09,-0.1
2022-12-08 20:8:19.3190,-0.82,0.32,0.35,0.27,0.07,-0.08
2022-12-08 20:8:19.3290,-0.81,0.23,0.52,0.37,0.03,-0.07
2022-12-08 20:8:19.3390,-0.82,0.13,0.71,0.45,-0.03,-0.05
2022-12-08 20:8:19.3490,-0.85,0.2,0.77,0.46,-0.09,-0.04
2022-12-08 20:8:19.3590,-0.82,0.11,0.68,0.42,-0.15,-0.05
2022-12-08 20:8:19.3690,-0.71,0.06,0.61,0.34,-0.19,-0.07
2022-12-08 20:8:19.3790,-0.54,0.01,0.63,0.24,-0.21,-0.1
2022-12-08 20:8:19.3880,-0.37,-0.12,0.73,0.15,-0.21,-0.14
2022-12-08 20:8:19.3980,-0.19,-0.22,0.9,0.09,-0.2,-0.18
2022-12-08 20:8:19.4080,-0.12,-0.36,1.17,0.09,-0.14,-0.21
2022-12-08 20:8:19.4180,-0.14,-0.42,1.33,0.15,-0.03,-0.19
2022-12-08 20:8:19.4280,-0.31,-0.31,1.3,0.25,0.04,-0.14
2022-12-08 20:8:19.4380,-0.48,-0.21,1.17,0.31,0.04,-0.08
2022-12-08 20:8:19.4480,-0.57,-0.28,1.04,0.29,-0.02,-0.04
2022-12-08 20:8:19.4580,-0.63,-0.19,0.82,0.18,-0.06,-0.03
2022-12-08 20:8:19.4680,-0.46,-0.1,0.55,0.01,-0.11,-0.08
2022-12-08 20:8:19.4780,-0.22,-0.09,0.47,-0.18,-0.17,-0.18
2022-12-08 20:8:19.4880,-0.02,-0.06,0.71,-0.34,-0.2,-0.29
2022-12-08 20:8:19.4980,0.17,-0.14,1.06,-0.37,-0.16,-0.39
2022-12-08 20:8:19.5080,0.27,-0.26,1.34,-0.28,-0.04,-0.45
2022-12-08 20:8:19.5180,0.24,-0.36,1.48,-0.1,0.09,-0.42
2022-12-08 20:8:19.5280,0.05,-0.37,1.53,0.1,0.21,-0.31
2022-12-08 20:8:19.5380,-0.15,-0.33,1.36,0.25,0.29,-0.16
2022-12-08 20:8:19.5480,-0.27,-0.28,0.97,0.29,0.32,-0.02
2022-12-08 20:8:19.5580,-0.36,-0.17,0.52,0.24,0.31,0.05
2022-12-08 20:8:19.5680,-0.37,-0.04,0.16,0.11,0.27,0.07
2022-12-08 20:8:19.5780,-0.16,0.03,-0.1,-0.06,0.18,0.02
2022-12-08 20:8:19.5870,0.14,0.02,-0.16,-0.24,0.06,-0.08
2022-12-08 20:8:19.5970,0.32,0.07,0.08,-0.36,-0.11,-0.23
2022-12-08 20:8:19.6080,0.37,-0.05,0.48,-0.37,-0.3,-0.37
2022-12-08 20:8:19.6170,0.38,-0.18,0.99,-0.3,-0.45,-0.44
2022-12-08 20:8:19.6270,0.43,-0.48904138281941417,1.29,-0.19,-0.51,-0.46
2022-12-08 20:8:19.6370,0.49,-0.49,1.29,-0.1,-0.46,-0.42
2022-12-08 20:8:19.6470,0.51,-0.55,1.06,-0.02,-0.34,-0.34
2022-12-08 20:8:19.6570,0.54,-0.56,0.74,0.01,-0.16,-0.26
2022-12-08 20:8:19.6670,0.53,-0.54,0.37,0.03,0.02,-0.19
2022-12-08 20:8:19.6770,0.46,-0.44,-0.02,0.05,0.2,-0.14
2022-12-08 20:8:19.6870,0.39,-0.28,-0.44,0.05,0.36,-0.12
2022-12-08 20:8:19.6970,0.43,-0.12,-0.86,0.03,0.49,-0.14
2022-12-08 20:8:19.7070,0.44,-0.03,-1.23,-0.01,0.55,-0.18
2022-12-08 20:8:19.7170,0.13,0.31,-1.55,-0.04,0.52,-0.22
2022-12-08 20:8:19.7270,0.13,0.31,-1.55,-0.04,0.44,-0.26
2022-12-08 20:8:19.7370,-0.12,0.23,-1.65,0.01,0.33,-0.28
2022-12-08 20:8:19.7470,-0.26,0.31,-1.67,0.08,0.23,-0.26
2022-12-08 20:8:19.7570,-0.29,0.35,-1.74,0.14,0.17,-0.23
2022-12-08 20:8:19.7670,-0.33,0.34,-1.92,0.18,0.1,-0.2
2022-12-08 20:8:19.7760,-0.32,0.39,-1.93,0.17,0.04,-0.15
2022-12-08 20:8:19.7870,-0.35,0.41,-1.89,0.13,-0.01,-0.12
2022-12-08 20:8:19.7970,-0.39,0.41,-1.9,0.07,-0.08,-0.09
2022-12-08 20:8:19.8070,-0.39,0.41,-1.67,0.03,-0.12,-0.06
2022-12-08 20:8:19.8170,-0.31,0.43,-1.48,0.02,-0.12,-0.03
2022-12-08 20:8:19.8260,-0.19,0.37,-1.26,0.04,-0.09,-0.01
2022-12-08 20:8:19.8370,-0.1,0.34,-1.05,0.08,-0.03,-0.0
2022-12-08 20:8:19.8460,-0.04,0.31,-0.92,0.11,0.03,-0.0
2022-12-08 20:8:19.8560,-0.03,0.28,-0.8,0.14,0.07,0.0
2022-12-08 20:8:19.8660,-0.11,0.24,-0.66,0.16,0.09,0.01
2022-12-08 20:8:19.8760,-0.22,0.23,-0.53,0.2,0.09,0.05
2022-12-08 20:8:19.8860,-0.29,0.19,-0.42,0.24,0.05,0.08
2022-12-08 20:8:19.8960,-0.38,0.09,-0.22,0.29,-0.01,0.15
2022-12-08 20:8:19.9060,-0.5,0.08,0.03,0.33,-0.05,0.21
2022-12-08 20:8:19.9160,-0.5,0.08,0.03,0.38,-0.09,0.28
2022-12-08 20:8:19.9260,-0.52,0.09,0.04,0.4,-0.09,0.33
2022-12-08 20:8:19.9360,-0.48,0.13,0.02,0.38,-0.08,0.36
2022-12-08 20:8:19.9460,-0.39,0.19,-0.01,0.33,-0.05,0.35
2022-12-08 20:8:19.9560,-0.32,0.23,0.04,0.27,-0.02,0.32
2022-12-08 20:8:19.9660,-0.26,0.3,0.1,0.2,0.0,0.28
2022-12-08 20:8:19.9760,-0.22,0.33,0.21,0.15,0.01,0.24
2022-12-08 20:8:19.9860,-0.19,0.33,0.37,0.11,0.01,0.22
2022-12-08 20:8:19.9960,-0.15,0.31,0.51,0.08,-0.01,0.2
2022-12-08 20:8:20.0060,-0.15,0.25,0.65,0.05,-0.04,0.18
2022-12-08 20:8:20.0160,-0.17,0.25,0.82,0.03,-0.03,0.18
2022-12-08 20:8:20.0260,-0.24,0.41,0.7,0.02,0.01,0.2
2022-12-08 20:8:20.0360,-0.24,0.41,0.7,-0.02,0.01,0.2
2022-12-08 20:8:20.0450,-0.15,0.36,0.69,-0.1,-0.01,0.16
2022-12-08 20:8:20.0550,-0.02,0.33,0.7,-0.25,-0.06,0.07
2022-12-08 20:8:20.0650,0.15,0.23,0.82,-0.41,-0.13,-0.05
2022-12-08 20:8:20.0750,0.25,0.2,1.23,-0.51,-0.15,-0.17
2022-12-08 20:8:20.0850,0.08,-0.21,1.84,-0.49,-0.15,-0.24
2022-12-08 20:8:20.0950,0.08,-0.21,1.84,-0.4,-0.17,-0.25
2022-12-08 20:8:20.1050,-0.13,-0.41,2.16,-0.26,-0.15,-0.19
2022-12-08 20:8:20.1150,-0.35,-0.53,2.13,-0.09,-0.09,-0.04
2022-12-08 20:8:20.1250,-0.43,-0.49,1.84,0.05,0.0,0.15
2022-12-08 20:8:20.1350,-0.39,-0.49,1.48,0.12,0.11,0.33
2022-12-08 20:8:20.1450,-0.31,-0.43,1.02,0.11,0.18,0.43
2022-12-08 20:8:20.1550,-0.25,-0.29,0.63,0.04,0.2,0.43
2022-12-08 20:8:20.1650,-0.11,-0.16,0.42,-0.05,0.18,0.36
2022-12-08 20:8:20.1750,0.08,-0.1,0.2,-0.15,0.12,0.25
2022-12-08 20:8:20.1850,0.2,-0.04,0.12,-0.23,0.02,0.13
2022-12-08 20:8:20.1950,0.18,-0.04,0.15,-0.27,-0.12,0.0
2022-12-08 20:8:20.2050,0.04,-0.16,0.26,-0.26,-0.24,-0.06
2022-12-08 20:8:20.2150,-0.09,-0.26,0.41,-0.2,-0.29,-0.07
2022-12-08 20:8:20.2250,-0.11,-0.38,0.36,-0.12,-0.29,-0.03
2022-12-08 20:8:20.2350,-0.18,-0.51,0.24,-0.01,-0.25,0.05
2022-12-08 20:8:20.2440,-0.3,-0.49,0.08,0.09,-0.16,0.15
2022-12-08 20:8:20.2550,-0.35,-0.43,-0.23,0.15,-0.05,0.22
2022-12-08 20:8:20.2640,-0.31,-0.39,-0.59,0.17,0.06,0.25
2022-12-08 20:8:20.2740,-0.24,-0.23,-0.98,0.15,0.15,0.24
2022-12-08 20:8:20.2840,-0.11,-0.1,-1.28,0.1,0.2,0.18
2022-12-08 20:8:20.2940,-0.05,-0.05,-1.53,0.05,0.19,0.1
2022-12-08 20:8:20.3040,-0.13,0.06,-1.58,0.02,0.13,0.02
2022-12-08 20:8:20.3140,-0.2,0.14,-1.55,0.02,0.05,-0.05
2022-12-08 20:8:20.3240,-0.29,0.13,-1.57,0.04,-0.01,-0.08
2022-12-08 20:8:20.3340,-0.38,0.13,-1.64,0.07,-0.04,-0.08
2022-12-08 20:8:20.3440,-0.43,0.15,-1.72,0.09,-0.03,-0.06
2022-12-08 20:8:20.3540,-0.44,0.14,-1.91,0.07,0.01,-0.03
2022-12-08 20:8:20.3640,-0.43,0.17,-2.05,0.01,0.06,-0.02
2022-12-08 20:8:20.3740,-0.41,0.24,-2.13,-0.05,0.09,-0.03
2022-12-08 20:8:20.3840,-0.36,0.31,-2.13,-0.12,0.11,-0.05
2022-12-08 20:8:20.3940,-0.29,0.36,-2.0,-0.17,0.11,-0.09
2022-12-08 20:8:20.4040,-0.23,0.41,-1.84,-0.2,0.06,-0.13
2022-12-08 20:8:20.4140,-0.24,0.45,-1.61,-0.18,-0.02,-0.17
2022-12-08 20:8:20.4240,-0.32,0.46,-1.26,-0.1,-0.08,-0.18
2022-12-08 20:8:20.4340,-0.43,0.45,-1.04,0.01,-0.09,-0.17
2022-12-08 20:8:20.4440,-0.44,0.35,-1.09,0.08,-0.06,-0.13
2022-12-08 20:8:20.4530,-0.39,0.37,-1.14,0.09,0.01,-0.07
2022-12-08 20:8:20.4630,-0.36,0.39,-1.36,0.07,0.08,-0.01
2022-12-08 20:8:20.4730,-0.36,0.39,-1.36,0.04,0.11,0.04
2022-12-08 20:8:20.4830,-0.39,0.46,-1.22,0.04,0.08,0.05
2022-12-08 20:8:20.4930,-0.46,0.5,-0.96,0.07,0.03,0.04
2022-12-08 20:8:20.5030,-0.47,0.55,-0.71,0.12,-0.01,0.0
2022-12-08 20:8:20.5130,-0.44,0.62,-0.57,0.14,-0.06,-0.06
2022-12-08 20:8:20.5230,-0.5,0.62,-0.46,0.11,-0.14,-0.11
2022-12-08 20:8:20.5330,-0.63,0.58,-0.18,0.07,-0.2,-0.11
2022-12-08 20:8:20.5430,-0.66,0.51,-0.01,-0.0,-0.26,-0.11
2022-12-08 20:8:20.5530,-0.56,0.32,0.25,-0.09,-0.32,-0.1
2022-12-08 20:8:20.5630,-0.47,0.17,0.73,-0.18,-0.4,-0.12
2022-12-08 20:8:20.5730,-0.41,0.03,1.44,-0.21,-0.43,-0.15
2022-12-08 20:8:20.5830,-0.31,-0.24,1.97,-0.16,-0.43,-0.17
2022-12-08 20:8:20.5930,-0.3,-0.39,2.49,-0.02,-0.34,-0.12
2022-12-08 20:8:20.6030,-0.4,-0.32,2.71,0.16,-0.16,-0.02
2022-12-08 20:8:20.6130,-0.49,-0.21,2.44,0.26,-0.01,0.07
2022-12-08 20:8:20.6230,-0.39,-0.34,2.17,0.21,0.06,0.12
2022-12-08 20:8:20.6330,-0.3,-0.25,2.04,0.02,0.1,0.13
2022-12-08 20:8:20.6420,-0.19,0.06,1.81,-0.24,0.13,0.06
2022-12-08 20:8:20.6520,0.01,0.12,1.66,-0.47,0.11,-0.08
2022-12-08 20:8:20.6620,0.1,0.18,1.78,-0.57,0.05,-0.23
2022-12-08 20:8:20.6720,-0.05,0.07,2.56,-0.5,-0.03,-0.34
2022-12-08 20:8:20.6820,-0.06,-0.05,2.65,-0.32,-0.07,-0.38
2022-12-08 20:8:20.6920,-0.06,-0.05,2.41,-0.09,-0.05,-0.33
2022-12-08 20:8:20.7020,-0.08,-0.12,2.41,0.12,0.03,-0.24
2022-12-08 20:8:20.7120,-0.12,-0.11,1.88,0.27,0.12,-0.12
2022-12-08 20:8:20.7220,-0.19,-0.05,1.28,0.32,0.17,-0.05
2022-12-08 20:8:20.7320,-0.32,0.03,0.77,0.32,0.18,-0.02
2022-12-08 20:8:20.7420,-0.39,0.13,0.35,0.27,0.15,-0.03
2022-12-08 20:8:20.7520,-0.35,0.22,0.07,0.19,0.09,-0.06
2022-12-08 20:8:20.7620,-0.25,0.22,-0.12,0.09,0.01,-0.11
2022-12-08 20:8:20.7720,-0.11,0.19,-0.16,-0.01,-0.1,-0.17
2022-12-08 20:8:20.7820,0.02,0.12,-0.09,-0.11,-0.21,-0.26
2022-12-08 20:8:20.7920,0.2,-0.06,0.31,-0.19,-0.32,-0.36
2022-12-08 20:8:20.8020,0.2,-0.06,0.31,-0.22,-0.4,-0.44
2022-12-08 20:8:20.8120,0.18,-0.19,0.56,-0.2,-0.48,-0.5
2022-12-08 20:8:20.8220,0.15,-0.36,0.76,-0.12,-0.52,-0.51
2022-12-08 20:8:20.8320,0.04,-0.47,0.81,0.0,-0.51,-0.47
2022-12-08 20:8:20.8420,-0.01,-0.57,0.72,0.16,-0.42,-0.37
2022-12-08 20:8:20.8510,0.0,-0.58,0.44,0.32,-0.27,-0.22
2022-12-08 20:8:20.8620,-0.04,-0.59,0.01,0.43,-0.08,-0.08
2022-12-08 20:8:20.8710,-0.07,-0.59,-0.53,0.43,0.08,0.02
2022-12-08 20:8:20.8810,-0.16,-0.23,-1.33,0.36,0.22,0.07
2022-12-08 20:8:20.8910,-0.16,-0.23,-1.33,0.25,0.37,0.08
2022-12-08 20:8:20.9010,-0.07,-0.1,-1.8,0.14,0.48,0.06
2022-12-08 20:8:20.9110,0.0,0.0,-2.04,0.06,0.52,0.03
2022-12-08 20:8:20.9210,-0.04,0.12,-2.05,0.04,0.48,-0.01
2022-12-08 20:8:20.9310,-0.18,0.23,-1.96,0.05,0.36,-0.04
2022-12-08 20:8:20.9410,-0.33,0.29,-1.86,0.09,0.19,-0.07
2022-12-08 20:8:20.9510,-0.47,0.31,-1.77,0.13,0.03,-0.07
2022-12-08 20:8:20.9610,-0.52,0.33,-1.79,0.14,-0.09,-0.04
2022-12-08 20:8:20.9710,-0.46,0.33,-1.86,0.12,-0.16,-0.0
2022-12-08 20:8:20.9810,-0.34,0.34,-1.89,0.08,-0.17,0.02
2022-12-08 20:8:20.9910,-0.23,0.36,-1.83,0.03,-0.14,0.04
2022-12-08 20:8:21.0010,-0.1,0.41,-1.76,-0.03,-0.09,0.02
2022-12-08 20:8:21.0110,0.02,0.43,-1.62,-0.1,-0.05,-0.02
2022-12-08 20:8:21.0210,0.1,0.41,-1.36,-0.13,-0.05,-0.07
2022-12-08 20:8:21.0310,0.12,0.34,-0.98,-0.11,-0.09,-0.09
2022-12-08 20:8:21.0410,0.08,0.26,-0.54,-0.06,-0.15,-0.1
2022-12-08 20:8:21.0510,0.06,0.15,-0.2,0.01,-0.18,-0.09
2022-12-08 20:8:21.0600,0.02,0.06,0.01,0.07,-0.16,-0.06
2022-12-08 20:8:21.0700,0.01,0.02,0.07,0.12,-0.08,-0.02
2022-12-08 20:8:21.0800,-0.04,-0.04,0.14,0.16,0.05,0.04
2022-12-08 20:8:21.0900,-0.09,-0.06,0.16,0.2,0.2,0.12
2022-12-08 20:8:21.1000,-0.12,-0.05,0.17,0.27,0.34,0.2
2022-12-08 20:8:21.1100,-0.15,-0.01,0.21,0.34,0.44,0.26
2022-12-08 20:8:21.1200,-0.22,0.03,0.18,0.38,0.46,0.31
2022-12-08 20:8:21.1300,-0.28,0.06,0.16,0.37,0.44,0.34
2022-12-08 20:8:21.1400,-0.31,0.18,0.03,0.32,0.39,0.35
2022-12-08 20:8:21.1500,-0.25,0.29,-0.14,0.22,0.33,0.32
2022-12-08 20:8:21.1600,-0.19,0.39,-0.17,0.09,0.25,0.26
2022-12-08 20:8:21.1700,-0.17,0.46,-0.02,-0.02,0.17,0.18
2022-12-08 20:8:21.1800,-0.16,0.48,0.23,-0.09,0.13,0.12
2022-12-08 20:8:21.1900,-0.07,0.46,0.5,-0.11,0.16,0.1
2022-12-08 20:8:21.2000,-0.09,0.41,0.68,-0.06,0.21,0.14
2022-12-08 20:8:21.2100,-0.31,0.52,0.71,0.0,0.21,0.2
2022-12-08 20:8:21.2200,-0.49,0.49,0.84,0.02,0.16,0.29
2022-12-08 20:8:21.2300,-0.53,0.32,0.81,-0.03,0.07,0.36
2022-12-08 20:8:21.2400,-0.4,0.29,0.8,-0.17,-0.1,0.36
2022-12-08 20:8:21.2500,-0.13,0.1,1.16,-0.33,-0.29,0.27
2022-12-08 20:8:21.2600,0.38,-0.28,2.13,-0.44,-0.42,0.15
2022-12-08 20:8:21.2690,0.49,-0.46,2.47,-0.45,-0.45,0.04
2022-12-08 20:8:21.2790,0.48,-0.58,2.49,-0.37,-0.34,-0.03
2022-12-08 20:8:21.2890,0.48,-0.58,2.49,-0.23,-0.15,-0.03
2022-12-08 20:8:21.2990,0.42,-0.66,2.38,-0.08,0.07,0.03
2022-12-08 20:8:21.3090,0.05,-0.62,1.4,0.01,0.3,0.15
2022-12-08 20:8:21.3190,0.05,-0.62,1.4,0.04,0.45,0.26
2022-12-08 20:8:21.3290,-0.16,-0.49,0.85,0.01,0.48,0.36
2022-12-08 20:8:21.3390,-0.34,-0.27,0.54,-0.05,0.44,0.38
2022-12-08 20:8:21.3490,-0.45,-0.17,0.23,-0.13,0.31,0.33
2022-12-08 20:8:21.3590,-0.5,-0.16,0.21,-0.19,0.12,0.24
2022-12-08 20:8:21.3690,-0.56,-0.12,0.29,-0.21,-0.05,0.16
2022-12-08 20:8:21.3790,-0.48,-0.12,0.29,-0.2,-0.18,0.1
2022-12-08 20:8:21.3890,-0.31,-0.2,0.24,-0.19,-0.27,0.04
2022-12-08 20:8:21.3990,-0.33,-0.31,0.27,-0.17,-0.32,-0.01
2022-12-08 20:8:21.4090,-0.44,-0.33,0.24,-0.17,-0.3,-0.03
2022-12-08 20:8:21.4190,-0.48,-0.37,0.14,-0.16,-0.23,-0.02
2022-12-08 20:8:21.4290,-0.48,-0.41,-0.03,-0.14,-0.15,0.02
2022-12-08 20:8:21.4390,-0.48,-0.41,-0.14,-0.1,-0.1,0.07
2022-12-08 20:8:21.4490,-0.51,-0.41,-0.22,-0.04,-0.09,0.1
2022-12-08 20:8:21.4590,-0.6,-0.43,-0.17,0.05,-0.08,0.13
2022-12-08 20:8:21.4690,-0.57,-0.44,-0.33,0.12,-0.07,0.14
2022-12-08 20:8:21.4780,-0.43,-0.47,-0.58,0.15,-0.07,0.14
2022-12-08 20:8:21.4880,-0.36,-0.42,-0.7,0.14,-0.06,0.1
2022-12-08 20:8:21.4980,-0.33,-0.34,-0.92,0.12,-0.02,0.05
2022-12-08 20:8:21.5080,-0.3,-0.3,-1.09,0.09,0.05,-0.01
2022-12-08 20:8:21.5180,-0.29,-0.21,-1.26,0.07,0.12,-0.06
2022-12-08 20:8:21.5280,-0.31,-0.18,-1.4,0.05,0.18,-0.09
2022-12-08 20:8:21.5380,-0.33,-0.16,-1.55,0.05,0.2,-0.11
2022-12-08 20:8:21.5480,-0.36,-0.19,-1.56,0.05,0.14,-0.12
2022-12-08 20:8:21.5580,-0.48,-0.22,-1.45,0.07,0.05,-0.1
2022-12-08 20:8:21.5680,-0.63,-0.19,-1.28,0.12,0.0,-0.08
2022-12-08 20:8:21.5780,-0.64,-0.28,-1.35,0.15,-0.01,-0.04
2022-12-08 20:8:21.5880,-0.59,-0.21,-1.28,0.17,0.02,-0.01
2022-12-08 20:8:21.5980,-0.49,-0.05,-1.24,0.18,0.08,-0.01
2022-12-08 20:8:21.6080,-0.37,-0.04,-1.26,0.18,0.15,-0.02
2022-12-08 20:8:21.6180,-0.3,0.04,-1.22,0.18,0.19,-0.04
2022-12-08 20:8:21.6280,-0.24,0.12,-1.17,0.19,0.22,-0.07
2022-12-08 20:8:21.6380,-0.18,0.12,-1.14,0.21,0.18,-0.1
2022-12-08 20:8:21.6480,-0.23,0.11,-0.98,0.24,0.11,-0.1
2022-12-08 20:8:21.6580,-0.32,0.12,-0.75,0.3,0.08,-0.09
2022-12-08 20:8:21.6680,-0.33,0.14,-0.8,0.35,0.08,-0.08
2022-12-08 20:8:21.6780,-0.28,0.05,-0.94,0.36,0.06,-0.07
2022-12-08 20:8:21.6880,-0.27,0.15,-0.81,0.32,0.05,-0.08
2022-12-08 20:8:21.6980,-0.19,0.17,-0.85,0.24,0.02,-0.12
2022-12-08 20:8:21.7080,-0.08,0.08,-0.71,0.16,-0.03,-0.17
2022-12-08 20:8:21.7170,-0.05,0.07,-0.43,0.09,-0.07,-0.21
2022-12-08 20:8:21.7280,-0.02,0.06,-0.18,0.04,-0.09,-0.25
2022-12-08 20:8:21.7370,-0.06,-0.01,0.08,-0.02,-0.11,-0.29
2022-12-08 20:8:21.7470,-0.11,-0.1,0.39,-0.1,-0.09,-0.33
2022-12-08 20:8:21.7570,-0.11,-0.19,0.64,-0.18,-0.01,-0.35
2022-12-08 20:8:21.7670,-0.22,-0.19,1.0,-0.23,0.14,-0.35
2022-12-08 20:8:21.7770,-0.22,-0.19,1.0,-0.2,0.28,-0.31
2022-12-08 20:8:21.7870,-0.38,-0.22,1.19,-0.14,0.34,-0.25
2022-12-08 20:8:21.7970,-0.64,-0.2,1.55,-0.07,0.36,-0.16
2022-12-08 20:8:21.8070,-0.88,-0.09,1.63,-0.0,0.39,-0.05
2022-12-08 20:8:21.8170,-1.07,0.07,1.33,0.03,0.36,0.06
2022-12-08 20:8:21.8270,-1.22,0.29,1.07,0.01,0.24,0.12
2022-12-08 20:8:21.8370,-1.22,0.37,1.04,-0.07,0.07,0.14
2022-12-08 20:8:21.8470,-1.09,0.35,0.95,-0.2,-0.14,0.12
2022-12-08 20:8:21.8570,-0.82,0.39,1.04,-0.33,-0.32,0.06
2022-12-08 20:8:21.8670,-0.52,0.41,1.27,-0.42,-0.43,-0.01
2022-12-08 20:8:21.8770,-0.22,0.35,1.46,-0.46,-0.49,-0.1
2022-12-08 20:8:21.8870,0.01,0.19,1.76,-0.42,-0.44,-0.15
2022-12-08 20:8:21.8970,0.1,0.06,1.85,-0.31,-0.32,-0.12
2022-12-08 20:8:21.9070,0.08,0.12,1.81,-0.14,-0.14,-0.05
2022-12-08 20:8:21.9170,0.05,0.2,1.59,0.03,0.07,0.05
2022-12-08 20:8:21.9270,-0.06,0.23,1.24,0.13,0.21,0.12
2022-12-08 20:8:21.9360,-0.22,0.33,0.87,0.17,0.3,0.16
2022-12-08 20:8:21.9460,-0.3,0.47,0.49,0.17,0.31,0.19
2022-12-08 20:8:21.9560,-0.3,0.56,0.16,0.15,0.25,0.18
2022-12-08 20:8:21.9660,-0.29,0.6,-0.03,0.12,0.12,0.14
2022-12-08 20:8:21.9760,-0.26,0.56,-0.11,0.06,-0.04,0.04
2022-12-08 20:8:21.9860,-0.21,0.45,-0.11,-0.01,-0.17,-0.06
2022-12-08 20:8:21.9960,-0.09,0.4,-0.13,-0.09,-0.26,-0.16
2022-12-08 20:8:22.0060,0.07,0.31,-0.12,-0.14,-0.3,-0.23
2022-12-08 20:8:22.0160,0.23,-0.02,0.15,-0.16,-0.3,-0.29
2022-12-08 20:8:22.0260,0.23,-0.02,0.15,-0.15,-0.26,-0.33
2022-12-08 20:8:22.0360,0.22,-0.17,0.2,-0.11,-0.17,-0.33
2022-12-08 20:8:22.0460,0.17,-0.32,0.17,-0.03,-0.05,-0.29
2022-12-08 20:8:22.0560,0.05,-0.45,0.06,0.07,0.1,-0.21
2022-12-08 20:8:22.0660,-0.03,-0.48,-0.21,0.16,0.22,-0.1
2022-12-08 20:8:22.0760,-0.03,-0.53,-0.53,0.21,0.32,-0.02
2022-12-08 20:8:22.0860,-0.05,-0.52,-0.88,0.21,0.35,0.02
2022-12-08 20:8:22.0960,-0.03,-0.44,-1.15,0.18,0.34,0.01
2022-12-08 20:8:22.1060,-0.05,-0.36,-1.31,0.17,0.33,-0.03
2022-12-08 20:8:22.1150,-0.06,-0.21,-1.46,0.18,0.31,-0.08
2022-12-08 20:8:22.1260,-0.1,-0.1,-1.61,0.19,0.29,-0.12
2022-12-08 20:8:22.1360,-0.14,-0.02,-1.78,0.18,0.25,-0.14
2022-12-08 20:8:22.1450,-0.23,0.03,-1.92,0.15,0.21,-0.13
2022-12-08 20:8:22.1550,-0.3,0.1,-2.08,0.1,0.16,-0.12
2022-12-08 20:8:22.1650,-0.32,0.09,-2.2,0.04,0.09,-0.11
2022-12-08 20:8:22.1750,-0.27,0.08,-1.97,-0.02,-0.02,-0.1
2022-12-08 20:8:22.1850,-0.27,0.08,-1.97,-0.05,-0.11,-0.07
2022-12-08 20:8:22.1950,-0.16,0.07,-1.77,-0.04,-0.21,-0.05
2022-12-08 20:8:22.2050,-0.12,0.05,-1.42,0.02,-0.24,-0.04
2022-12-08 20:8:22.2150,-0.09,0.0,-1.27,0.06,-0.22,-0.03
2022-12-08 20:8:22.2250,0.07,-0.03,-1.27,0.06,-0.16,-0.02
2022-12-08 20:8:22.2350,0.22,0.07,-1.13,0.02,-0.05,-0.04
2022-12-08 20:8:22.2450,0.33,0.06,-1.22,-0.04,0.02,-0.06
2022-12-08 20:8:22.2550,0.31,0.04,-1.07,-0.07,0.05,-0.07
2022-12-08 20:8:22.2650,0.19,0.08,-0.76,-0.05,0.04,-0.06
2022-12-08 20:8:22.2750,0.05,0.02,-0.51,0.01,0.01,-0.04
2022-12-08 20:8:22.2850,-0.08,-0.05,-0.29,0.09,-0.02,0.02
2022-12-08 20:8:22.2950,-0.2,-0.03,-0.14,0.16,-0.01,0.09
2022-12-08 20:8:22.3050,-0.28,-0.03,-0.14,0.21,0.03,0.17
2022-12-08 20:8:22.3150,-0.34,0.02,-0.25,0.22,0.09,0.24
2022-12-08 20:8:22.3250,-0.4,0.09,-0.35,0.21,0.16,0.3
2022-12-08 20:8:22.3350,-0.41,0.22,-0.43,0.17,0.22,0.33
2022-12-08 20:8:22.3440,-0.4,0.33,-0.49,0.12,0.22,0.33
2022-12-08 20:8:22.3540,-0.4,0.52,-0.29,0.05,0.17,0.32
2022-12-08 20:8:22.3640,-0.4,0.52,-0.29,-0.04,0.05,0.26
2022-12-08 20:8:22.3740,-0.33,0.47,-0.04,-0.12,-0.12,0.18
2022-12-08 20:8:22.3840,-0.27,0.39,0.43,-0.15,-0.24,0.12
2022-12-08 20:8:22.3940,-0.15,0.32,0.8,-0.16,-0.29,0.07
2022-12-08 20:8:22.4040,-0.05,0.16,1.07,-0.14,-0.23,0.06
2022-12-08 20:8:22.4140,-0.07,0.11,1.2,-0.09,-0.09,0.1
2022-12-08 20:8:22.4240,-0.12,0.13,1.26,-0.04,0.1,0.2
2022-12-08 20:8:22.4340,-0.31,0.29,1.18,-0.02,0.28,0.31
2022-12-08 20:8:22.4440,-0.56,0.49,0.97,-0.06,0.34,0.37
2022-12-08 20:8:22.4540,-0.65,0.42,0.92,-0.18,0.28,0.39
2022-12-08 20:8:22.4640,-0.53,0.38,1.01,-0.37,0.14,0.36
2022-12-08 20:8:22.4740,-0.28,0.36,1.17,-0.57,-0.06,0.25
2022-12-08 20:8:22.4840,0.02,0.15,2.19,-0.66,-0.24,0.07
2022-12-08 20:8:22.4940,0.02,0.15,2.19,-0.62,-0.37,-0.07
2022-12-08 20:8:22.5040,0.05,-0.12,2.66,-0.46,-0.42,-0.13
2022-12-08 20:8:22.5140,-0.05,-0.24,2.88,-0.21,-0.36,-0.07
2022-12-08 20:8:22.5240,-0.14,-0.27,2.71,0.05,-0.18,0.1
2022-12-08 20:8:22.5330,-0.24,-0.29,2.15,0.26,0.06,0.33
2022-12-08 20:8:22.5430,-0.28,-0.23,1.44,0.32,0.26,0.53
2022-12-08 20:8:22.5540,-0.37,-0.14,0.82,0.26,0.39,0.66
2022-12-08 20:8:22.5630,-0.44,0.12,0.26,0.1,0.41,0.69
2022-12-08 20:8:22.5730,-0.34,0.26,0.08,-0.08,0.35,0.6
2022-12-08 20:8:22.5830,-0.14,0.36,0.07,-0.22,0.22,0.44
2022-12-08 20:8:22.5930,-0.03,0.38,0.52,-0.3,0.02,0.24
2022-12-08 20:8:22.6030,-0.06,0.25,0.85,-0.31,-0.2,0.04
2022-12-08 20:8:22.6130,-0.11,-0.01,0.84,-0.23,-0.34,-0.11
2022-12-08 20:8:22.6230,-0.11,-0.01,0.84,-0.12,-0.44,-0.17
2022-12-08 20:8:22.6330,-0.43,-0.32,1.0,-0.0,-0.5,-0.17
2022-12-08 20:8:22.6430,-0.43,-0.32,1.0,0.1,-0.47,-0.1
2022-12-08 20:8:22.6530,-0.52,-0.41,0.71,0.17,-0.36,0.01
2022-12-08 20:8:22.6630,-0.49,-0.51,0.34,0.21,-0.24,0.13
2022-12-08 20:8:22.6730,-0.46,-0.4686098957061768,-0.31,0.22,-0.12,0.21
2022-12-08 20:8:22.6830,-0.39,-0.47,-0.31,0.22,-0.03,0.23
2022-12-08 20:8:22.6930,-0.11,-0.41,-0.83,0.2,0.03,0.21
2022-12-08 20:8:22.7030,-0.11,-0.41,-0.83,0.17,0.09,0.16
2022-12-08 20:8:22.7120,0.12,-0.37,-1.28,0.14,0.12,0.08
2022-12-08 20:8:22.7220,0.11,-0.31,-1.45,0.12,0.14,0.0
2022-12-08 20:8:22.7320,0.11,-0.31,-1.45,0.11,0.14,-0.07
2022-12-08 20:8:22.7430,0.06,-0.28,-1.63,0.09,0.15,-0.11
2022-12-08 20:8:22.7530,-0.12,-0.22,-2.01,0.06,0.17,-0.14
2022-12-08 20:8:22.7630,-0.12,-0.22,-2.01,0.03,0.19,-0.15
2022-12-08 20:8:22.7720,-0.38,-0.15,-2.14,0.02,0.17,-0.15
2022-12-08 20:8:22.7820,-0.38,-0.15,-2.14,0.04,0.08,-0.13
2022-12-08 20:8:22.7920,-0.6,-0.17,-1.85,0.09,-0.01,-0.07
2022-12-08 20:8:22.8020,-0.7,-0.12,-1.72,0.16,-0.07,0.0
2022-12-08 20:8:22.8120,-0.66,-0.11,-1.63,0.2,-0.09,0.05
2022-12-08 20:8:22.8220,-0.56,-0.04,-1.54,0.24,-0.06,0.07
2022-12-08 20:8:22.8320,-0.44,0.08,-1.5,0.25,-0.01,0.07
2022-12-08 20:8:22.8420,-0.31,0.14,-1.49,0.21,0.04,0.04
2022-12-08 20:8:22.8520,-0.2,0.25,-1.44,0.15,0.1,-0.01
2022-12-08 20:8:22.8620,-0.13,0.36,-1.38,0.1,0.13,-0.07
2022-12-08 20:8:22.8720,-0.16,0.39,-1.22,0.1,0.11,-0.11
2022-12-08 20:8:22.8820,-0.33,0.37,-0.89,0.13,0.08,-0.11
2022-12-08 20:8:22.8920,-0.47,0.41,-0.68,0.16,0.04,-0.08
2022-12-08 20:8:22.9020,-0.49,0.37,-0.48,0.19,-0.01,-0.06
2022-12-08 20:8:22.9120,-0.53,0.32,-0.34,0.2,-0.05,-0.04
2022-12-08 20:8:22.9220,-0.57,0.31,-0.17,0.18,-0.09,-0.05
2022-12-08 20:8:22.9310,-0.53,0.31,-0.02,0.15,-0.09,-0.06
2022-12-08 20:8:22.9420,-0.46,0.28,0.09,0.11,-0.07,-0.07
2022-12-08 20:8:22.9520,-0.38,0.24,0.23,0.06,-0.09,-0.09
2022-12-08 20:8:22.9620,-0.37,0.15,0.75,0.03,-0.11,-0.11
2022-12-08 20:8:22.9720,-0.37,0.15,0.75,0.01,-0.14,-0.13
2022-12-08 20:8:22.9810,-0.3,0.08,0.93,-0.01,-0.16,-0.14
2022-12-08 20:8:22.9910,-0.23,0.01,1.1,-0.05,-0.18,-0.14
2022-12-08 20:8:23.0010,-0.19,-0.05,1.27,-0.06,-0.17,-0.13
2022-12-08 20:8:23.0110,-0.24,0.0,1.35,-0.06,-0.1,-0.09
2022-12-08 20:8:23.0210,-0.37,0.23,1.15,-0.09,-0.07,-0.08
2022-12-08 20:8:23.0310,-0.36,0.19,1.09,-0.18,-0.07,-0.09
2022-12-08 20:8:23.0410,-0.28,0.07,1.09,-0.34,-0.08,-0.12
2022-12-08 20:8:23.0510,-0.11,0.16,1.13,-0.52,-0.11,-0.19
2022-12-08 20:8:23.0610,-0.11,0.16,1.13,-0.68,-0.18,-0.27
2022-12-08 20:8:23.0710,0.01,0.06,1.59,-0.75,-0.22,-0.34
2022-12-08 20:8:23.0810,0.09,-0.02,2.05,-0.71,-0.2,-0.42
2022-12-08 20:8:23.0910,0.14,-0.32,2.47,-0.58,-0.13,-0.43
2022-12-08 20:8:23.1010,0.14,-0.32,2.47,-0.36,0.0,-0.38
2022-12-08 20:8:23.1110,-0.01,-0.31,2.39,-0.08,0.19,-0.26
2022-12-08 20:8:23.1210,-0.23,-0.26,1.95,0.16,0.38,-0.11
2022-12-08 20:8:23.1300,-0.46,-0.2,1.39,0.3,0.48,0.03
2022-12-08 20:8:23.1410,-0.68,-0.13,0.8,0.33,0.49,0.13
2022-12-08 20:8:23.1500,-0.78,0.06,0.33,0.3,0.45,0.18
2022-12-08 20:8:23.1600,-0.63,0.2,-0.27,0.22,0.33,0.17
2022-12-08 20:8:23.1700,-0.63,0.2,-0.27,0.12,0.16,0.11
2022-12-08 20:8:23.1800,-0.55,0.22,-0.2,0.04,-0.03,0.02
2022-12-08 20:8:23.1900,-0.15,0.12,0.16,-0.04,-0.23,-0.09
2022-12-08 20:8:23.2000,-0.15,0.12,0.16,-0.08,-0.4,-0.18
2022-12-08 20:8:23.2100,0.04,0.01,0.51,-0.09,-0.5,-0.28
2022-12-08 20:8:23.2200,0.17,-0.2,0.85,-0.08,-0.5,-0.34
2022-12-08 20:8:23.2300,0.22,-0.38,1.0,-0.04,-0.42,-0.35
2022-12-08 20:8:23.2400,0.23,-0.48,1.01,0.02,-0.28,-0.29
2022-12-08 20:8:23.2500,0.25,-0.54,0.88,0.1,-0.11,-0.21
2022-12-08 20:8:23.2600,0.26,-0.56,0.63,0.17,0.06,-0.11
2022-12-08 20:8:23.2700,0.3,-0.58,0.32,0.21,0.19,-0.06
2022-12-08 20:8:23.2800,0.3,-0.54,-0.06,0.22,0.27,-0.04
2022-12-08 20:8:23.2900,0.32,-0.43,-0.47,0.24,0.31,-0.05
2022-12-08 20:8:23.3000,0.38,-0.32,-0.87,0.25,0.32,-0.08
2022-12-08 20:8:23.3100,0.34,-0.25,-1.25,0.27,0.29,-0.12
2022-12-08 20:8:23.3200,0.19,-0.12,-1.56,0.28,0.24,-0.16
2022-12-08 20:8:23.3300,0.02,-0.06,-1.82,0.27,0.17,-0.19
2022-12-08 20:8:23.3400,-0.1,0.02,-2.06,0.25,0.13,-0.19
2022-12-08 20:8:23.3500,-0.12,0.12,-2.34,0.19,0.13,-0.17
2022-12-08 20:8:23.3600,-0.06,0.14,-2.61,0.11,0.17,-0.14
2022-12-08 20:8:23.3700,0.0,0.38,-2.73,0.03,0.2,-0.12
2022-12-08 20:8:23.3800,0.0,0.38,-2.73,-0.03,0.22,-0.12
2022-12-08 20:8:23.3900,0.03,0.45,-2.64,-0.07,0.21,-0.14
2022-12-08 20:8:23.4000,-0.01,0.48,-2.49,-0.08,0.17,-0.15
2022-12-08 20:8:23.4090,-0.05,0.58,-2.29,-0.09,0.11,-0.15
2022-12-08 20:8:23.4190,-0.06,0.63,-2.1,-0.1,0.03,-0.17
2022-12-08 20:8:23.4290,-0.12,0.63,-1.81,-0.1,-0.05,-0.19
2022-12-08 20:8:23.4390,-0.2,0.6,-1.42,-0.07,-0.14,-0.2
2022-12-08 20:8:23.4490,-0.26,0.54,-1.01,-0.02,-0.15,-0.18
2022-12-08 20:8:23.4590,-0.25,0.47,-0.88,0.02,-0.12,-0.14
2022-12-08 20:8:23.4690,-0.18,0.43,-0.73,0.05,-0.06,-0.08
2022-12-08 20:8:23.4790,-0.1,0.35,-0.66,0.06,0.01,-0.04
2022-12-08 20:8:23.4890,-0.07,0.27,-0.56,0.06,0.08,-0.01
2022-12-08 20:8:23.4990,-0.07,0.27,-0.42,0.08,0.12,0.01
2022-12-08 20:8:23.5090,-0.12,0.26,-0.21,0.13,0.16,0.03
2022-12-08 20:8:23.5190,-0.16,0.25,-0.03,0.17,0.19,0.06
2022-12-08 20:8:23.5290,-0.15,0.27,0.01,0.19,0.2,0.1
2022-12-08 20:8:23.5390,-0.17,0.32,0.0,0.17,0.19,0.12
2022-12-08 20:8:23.5480,-0.15,0.37,-0.07,0.11,0.16,0.12
2022-12-08 20:8:23.5590,-0.13,0.4,-0.08,0.03,0.11,0.12
2022-12-08 20:8:23.5680,-0.12,0.41,0.07,-0.05,0.03,0.11
2022-12-08 20:8:23.5790,-0.1,0.39,0.3,-0.1,-0.06,0.1
2022-12-08 20:8:23.5880,-0.06,0.33,0.63,-0.11,-0.13,0.1
2022-12-08 20:8:23.5980,-0.01,0.27,0.96,-0.08,-0.13,0.1
2022-12-08 20:8:23.6080,0.03,0.29,1.22,-0.05,-0.06,0.09
2022-12-08 20:8:23.6180,-0.03,0.43,1.21,-0.06,0.03,0.07
2022-12-08 20:8:23.6280,-0.06,0.51,1.21,-0.16,0.06,0.04
2022-12-08 20:8:23.6380,-0.02,0.51,1.25,-0.38,0.03,-0.0
2022-12-08 20:8:23.6480,0.1,0.52,1.34,-0.65,-0.04,-0.08
2022-12-08 20:8:23.6580,0.14,0.5,1.76,-0.8,-0.12,-0.2
2022-12-08 20:8:23.6680,0.14,0.36,2.43,-0.77,-0.26,-0.31
2022-12-08 20:8:23.6780,0.11,0.04,3.29,-0.6,-0.37,-0.35
2022-12-08 20:8:23.6880,-0.03,-0.28,3.85,-0.34,-0.41,-0.3
2022-12-08 20:8:23.6980,-0.23,-0.66,3.59,-0.07,-0.34,-0.17
2022-12-08 20:8:23.7080,-0.23,-0.66,3.59,0.15,-0.16,0.02
2022-12-08 20:8:23.7180,-0.25,-0.7,2.15114210665226,0.3,0.07,0.23
2022-12-08 20:8:23.7280,-0.25,-0.66,2.15,0.35,0.26,0.39
2022-12-08 20:8:23.7380,-0.32,-0.48,1.6,0.33,0.43,0.49
2022-12-08 20:8:23.7480,-0.39,-0.24,0.91,0.29,0.56,0.51
2022-12-08 20:8:23.7580,-0.34,-0.1,-0.09,0.22,0.57,0.47
2022-12-08 20:8:23.7680,-0.34,-0.1,-0.09,0.13,0.48,0.38
2022-12-08 20:8:23.7770,-0.4,0.0,-0.25,0.03,0.33,0.26
2022-12-08 20:8:23.7880,-0.6,0.02,-0.44,-0.06,0.13,0.13
2022-12-08 20:8:23.7980,-0.69,-0.06,-0.25,-0.11,-0.1,0.02
2022-12-08 20:8:23.8070,-0.69,-0.06,-0.06761895596981049,-0.1,-0.32,-0.03
2022-12-08 20:8:23.8170,-0.71,-0.15,-0.07,-0.05,-0.47,-0.03
2022-12-08 20:8:23.8270,-0.68,-0.38,0.06,0.04,-0.54,-0.02
2022-12-08 20:8:23.8370,-0.71,-0.53,0.09,0.12,-0.56,0.03
2022-12-08 20:8:23.8470,-0.66,-0.56,0.15,0.19,-0.5,0.09
2022-12-08 20:8:23.8570,-0.5,-0.63,0.03,0.2,-0.37,0.14
2022-12-08 20:8:23.8670,-0.33,-0.66,-0.2,0.17,-0.22,0.14
2022-12-08 20:8:23.8770,-0.21,-0.63,-0.36,0.11,-0.08,0.11
2022-12-08 20:8:23.8870,-0.16,-0.6,-0.5,0.07,0.05,0.05
2022-12-08 20:8:23.8970,-0.15,-0.54,-0.63,0.05,0.14,0.01
2022-12-08 20:8:23.9070,-0.15,-0.51,-0.74,0.06,0.2,-0.03
2022-12-08 20:8:23.9170,-0.23,-0.49,-0.96,0.08,0.23,-0.05
2022-12-08 20:8:23.9270,-0.34,-0.49,-1.18,0.11,0.21,-0.05
2022-12-08 20:8:23.9370,-0.47,-0.5,-1.33,0.14,0.17,-0.03
2022-12-08 20:8:23.9470,-0.58,-0.44,-1.48,0.19,0.17,0.0
2022-12-08 20:8:23.9570,-0.59,-0.46,-1.93,0.22,0.14,0.04
2022-12-08 20:8:23.9670,-0.61,-0.44,-2.11,0.22,0.09,0.08
2022-12-08 20:8:23.9770,-0.66,-0.25,-2.2,0.19,0.08,0.1
2022-12-08 20:8:23.9860,-0.6,-0.12,-2.43,0.12,0.09,0.08
2022-12-08 20:8:23.9960,-0.48,-0.05,-2.5,0.04,0.1,0.04
2022-12-08 20:8:24.0060,-0.46,0.07,-2.42,-0.01,0.11,-0.0
2022-12-08 20:8:24.0160,-0.49,0.15,-2.27,-0.06,0.07,-0.05
2022-12-08 20:8:24.0260,-0.53,0.16,-1.96,-0.06,0.02,-0.08
2022-12-08 20:8:24.0360,-0.66,0.17,-1.62,-0.01,-0.03,-0.07
2022-12-08 20:8:24.0460,-0.75,0.16,-1.18,0.05,-0.07,-0.02
2022-12-08 20:8:24.0560,-0.75,0.16,-1.18,0.1,-0.06,0.02
2022-12-08 20:8:24.0660,-0.7,0.12,-1.18,0.12,-0.05,0.05
2022-12-08 20:8:24.0760,-0.66,0.15,-1.01,0.14,-0.03,0.08
2022-12-08 20:8:24.0860,-0.6,0.2,-0.81,0.15,0.01,0.08
2022-12-08 20:8:24.0960,-0.52,0.17,-0.66,0.17,0.04,0.08
2022-12-08 20:8:24.1060,-0.48,0.19,-0.45,0.2,0.05,0.06
2022-12-08 20:8:24.1160,-0.52,0.16,-0.18,0.24,0.06,0.05
2022-12-08 20:8:24.1260,-0.6,0.18,-0.02,0.26,0.07,0.06
2022-12-08 20:8:24.1360,-0.66,0.2,0.02,0.26,0.06,0.09
2022-12-08 20:8:24.1460,-0.75,0.21,0.02,0.22,0.02,0.12
2022-12-08 20:8:24.1560,-0.87,0.22,0.1,0.16,-0.06,0.14
2022-12-08 20:8:24.1660,-0.9,0.27,0.24,0.1,-0.14,0.15
2022-12-08 20:8:24.1760,-0.81,0.28,0.45,0.05,-0.23,0.15
2022-12-08 20:8:24.1860,-0.61,0.18,0.73,0.01,-0.32,0.13
2022-12-08 20:8:24.1960,-0.4,0.07,1.07,-0.0,-0.34,0.1
2022-12-08 20:8:24.2060,-0.21,0.05,1.37,0.03,-0.27,0.08
2022-12-08 20:8:24.2150,-0.15,0.21,1.42,0.03,-0.2,0.05
2022-12-08 20:8:24.2260,-0.07,0.3,1.42,-0.05,-0.17,0.0
2022-12-08 20:8:24.2350,0.08,0.15,1.49,-0.19,-0.13,-0.05
2022-12-08 20:8:24.2450,0.23,0.19,1.39,-0.37,-0.1,-0.11
2022-12-08 20:8:24.2550,0.37,0.23,1.49,-0.54,-0.09,-0.19
2022-12-08 20:8:24.2650,0.39,0.16,1.79,-0.61,-0.05,-0.27
2022-12-08 20:8:24.2750,0.34,0.03,2.09,-0.57,-0.01,-0.32
2022-12-08 20:8:24.2850,0.26,-0.11,2.43,-0.43,0.05,-0.31
2022-12-08 20:8:24.2950,0.12,-0.22,2.54,-0.21,0.14,-0.24
2022-12-08 20:8:24.3050,-0.04,-0.26,2.4,0.04,0.23,-0.1
2022-12-08 20:8:24.3150,-0.17,-0.27,2.06,0.24,0.3,0.06
2022-12-08 20:8:24.3250,-0.28,-0.21,1.54,0.34,0.35,0.19
2022-12-08 20:8:24.3350,-0.34,-0.07,0.9,0.36,0.38,0.26
2022-12-08 20:8:24.3450,-0.31,0.11,0.34,0.32,0.36,0.29
2022-12-08 20:8:24.3550,-0.18,0.23,-0.07,0.24,0.3,0.27
2022-12-08 20:8:24.3650,-0.01,0.29,-0.28,0.15,0.2,0.2
2022-12-08 20:8:24.3750,0.16,0.31,-0.38,0.07,0.06,0.09
2022-12-08 20:8:24.3850,0.26,0.31,-0.33,-0.0,-0.1,-0.04
2022-12-08 20:8:24.3950,0.37,0.22,-0.19,-0.06,-0.24,-0.15
2022-12-08 20:8:24.4050,0.61,-0.06,0.06,-0.11,-0.33,-0.25
2022-12-08 20:8:24.4150,0.61,-0.06,0.06,-0.14,-0.36,-0.32
2022-12-08 20:8:24.4240,0.58,-0.24,0.21,-0.15,-0.32,-0.36
2022-12-08 20:8:24.4340,0.51,-0.37,0.34,-0.12,-0.22,-0.34
2022-12-08 20:8:24.4440,0.51,-0.45,0.35,-0.07,-0.1,-0.29
2022-12-08 20:8:24.4540,0.47,-0.55,0.33,0.0,0.04,-0.22
2022-12-08 20:8:24.4640,0.4,-0.57,0.18,0.07,0.15,-0.15
2022-12-08 20:8:24.4740,0.31,-0.58,-0.01,0.13,0.23,-0.11
2022-12-08 20:8:24.4840,0.24,-0.56,-0.32,0.16,0.27,-0.09
2022-12-08 20:8:24.4940,0.21,-0.49,-0.68,0.17,0.27,-0.1
2022-12-08 20:8:24.5040,0.21,-0.44,-0.99,0.16,0.23,-0.12
2022-12-08 20:8:24.5140,0.18,-0.4,-1.3,0.15,0.19,-0.15
2022-12-08 20:8:24.5240,0.13,-0.31,-1.53,0.13,0.15,-0.17
2022-12-08 20:8:24.5340,0.06,-0.19,-1.77,0.12,0.14,-0.18
2022-12-08 20:8:24.5440,0.0,-0.1,-2.01,0.1,0.16,-0.17
2022-12-08 20:8:24.5540,-0.05,-0.02,-2.23,0.05,0.2,-0.15
2022-12-08 20:8:24.5640,-0.11,0.07,-2.4,-0.01,0.21,-0.12
2022-12-08 20:8:24.5740,-0.13,0.15,-2.42,-0.07,0.19,-0.09
2022-12-08 20:8:24.5840,-0.16,0.21,-2.29,-0.12,0.1,-0.07
2022-12-08 20:8:24.5940,-0.22,0.31,-1.97,-0.13,0.03,-0.06
2022-12-08 20:8:24.6030,-0.19,0.31,-1.82,-0.11,-0.02,-0.05
2022-12-08 20:8:24.6130,-0.07,0.26,-1.69,-0.09,-0.05,-0.06
2022-12-08 20:8:24.6230,-0.01,0.36,-1.43,-0.08,-0.05,-0.06
2022-12-08 20:8:24.6340,0.04,0.46,-1.31,-0.06,-0.02,-0.06
2022-12-08 20:8:24.6430,0.1,0.39,-1.27,-0.04,-0.05,-0.05
2022-12-08 20:8:24.6530,0.03,0.34,-0.92,0.02,-0.08,-0.02
2022-12-08 20:8:24.6630,-0.01,0.37,-0.61,0.1,-0.07,0.02
2022-12-08 20:8:24.6730,0.04,0.25,-0.57,0.18,-0.03,0.08
2022-12-08 20:8:24.6830,0.07,0.2,-0.51,0.25,0.02,0.14
2022-12-08 20:8:24.6930,0.04,0.25,-0.45,0.28,0.09,0.18
2022-12-08 20:8:24.7030,-0.07,0.26,-0.52,0.29,0.13,0.23
2022-12-08 20:8:24.7130,-0.22,0.33,-0.5,0.28,0.14,0.27
2022-12-08 20:8:24.7230,-0.22,0.33,-0.5,0.25,0.11,0.29
2022-12-08 20:8:24.7330,-0.21,0.32,-0.41,0.21,0.06,0.28
2022-12-08 20:8:24.7430,-0.21,0.37,-0.28,0.17,-0.01,0.27
2022-12-08 20:8:24.7530,-0.2,0.39,-0.08,0.13,-0.11,0.23
2022-12-08 20:8:24.7630,-0.16,0.36,0.24,0.09,-0.19,0.19
2022-12-08 20:8:24.7730,-0.12,0.31,0.53,0.07,-0.26,0.15
2022-12-08 20:8:24.7830,-0.07,0.18,0.9,0.06,-0.27,0.13
2022-12-08 20:8:24.7930,-0.17,0.19,1.15,0.08,-0.2,0.16
2022-12-08 20:8:24.8030,-0.42,0.32,1.2,0.11,-0.14,0.21
2022-12-08 20:8:24.8130,-0.54,0.27,1.32,0.06,-0.14,0.26
2022-12-08 20:8:24.8230,-0.39,0.11,1.46,-0.1,-0.18,0.26
2022-12-08 20:8:24.8320,-0.19,-0.03,1.59,-0.36,-0.27,0.18
2022-12-08 20:8:24.8430,0.01,-0.02,1.98,-0.62,-0.37,0.05
2022-12-08 20:8:24.8520,0.11,0.01,2.68,-0.72,-0.39,-0.1
2022-12-08 20:8:24.8620,0.17,-0.2,3.19,-0.66,-0.36,-0.22
2022-12-08 20:8:24.8720,0.12,-0.53,3.52,-0.5,-0.29,-0.23
2022-12-08 20:8:24.8820,-0.09,-0.6,3.7,-0.28,-0.17,-0.15
2022-12-08 20:8:24.8920,-0.28,-0.71,3.39,-0.05,-0.01,0.02
2022-12-08 20:8:24.9020,-0.35,-0.71,2.78,0.11,0.16,0.25
2022-12-08 20:8:24.9120,-0.41,-0.64,2.14,0.18,0.32,0.43
2022-12-08 20:8:24.9220,-0.46,-0.49,1.34,0.17,0.46,0.54
2022-12-08 20:8:24.9320,-0.45,-0.2,0.62,0.12,0.55,0.55
2022-12-08 20:8:24.9420,-0.31,-0.06,0.09,0.04,0.58,0.52
2022-12-08 20:8:24.9520,-0.14,0.1,-0.22,-0.03,0.49,0.42
2022-12-08 20:8:24.9620,-0.13,0.19,-0.3,-0.11,0.3,0.28
2022-12-08 20:8:24.9720,-0.29,0.18,-0.22,-0.17,0.06,0.13
2022-12-08 20:8:24.9820,-0.48,0.12,-0.15,-0.21,-0.16,0.01
2022-12-08 20:8:24.9920,-0.59,0.05,-0.03,-0.2,-0.33,-0.04
2022-12-08 20:8:25.0020,-0.61,-0.11,0.06,-0.14,-0.42,-0.05
2022-12-08 20:8:25.0120,-0.64,-0.36,0.09,-0.06,-0.44,-0.01
2022-12-08 20:8:25.0210,-0.69,-0.5,0.07,0.0,-0.44,0.06
2022-12-08 20:8:25.0320,-0.71,-0.54,0.11,0.06,-0.36,0.12
2022-12-08 20:8:25.0420,-0.55,-0.66,-0.28,0.08,-0.25,0.18
2022-12-08 20:8:25.0520,-0.55,-0.66,-0.28,0.07,-0.12,0.22
2022-12-08 20:8:25.0610,-0.44,-0.67,-0.43,0.06,-0.02,0.21
2022-12-08 20:8:25.0720,-0.36,-0.64,-0.57,0.06,0.06,0.17
2022-12-08 20:8:25.0820,-0.27,-0.59,-0.68,0.06,0.12,0.1
2022-12-08 20:8:25.0910,-0.27,-0.48,-0.96,0.1,0.15,0.04
2022-12-08 20:8:25.1010,-0.27,-0.48,-0.96,0.15,0.17,-0.02
2022-12-08 20:8:25.1110,-0.36,-0.42,-1.18,0.18,0.17,-0.03
2022-12-08 20:8:25.1210,-0.48,-0.35,-1.4,0.21,0.16,-0.04
2022-12-08 20:8:25.1310,-0.59,-0.37,-1.74,0.2,0.13,-0.03
2022-12-08 20:8:25.1410,-0.66,-0.38,-1.95,0.16,0.11,-0.01
2022-12-08 20:8:25.1510,-0.71,-0.31,-2.12,0.09,0.1,0.01
2022-12-08 20:8:25.1610,-0.69,-0.24,-2.3,0.02,0.1,0.02
2022-12-08 20:8:25.1710,-0.62,-0.16,-2.27,-0.03,0.11,0.0
2022-12-08 20:8:25.1810,-0.52,-0.06,-2.17,-0.04,0.1,-0.03
2022-12-08 20:8:25.1910,-0.46,0.02,-1.95,-0.01,0.08,-0.07
2022-12-08 20:8:25.2010,-0.51,0.06,-1.71,0.02,0.06,-0.09
2022-12-08 20:8:25.2110,-0.48,0.08,-1.53,0.05,0.06,-0.09
2022-12-08 20:8:25.2200,-0.41,0.04,-1.5,0.04,0.05,-0.07
2022-12-08 20:8:25.2300,-0.37,0.08,-1.35,0.02,0.04,-0.06
2022-12-08 20:8:25.2410,-0.33,0.12,-1.2,0.02,0.05,-0.05
2022-12-08 20:8:25.2500,-0.27,0.14,-1.09,0.03,0.06,-0.06
2022-12-08 20:8:25.2610,-0.27,0.16,-0.83,0.07,0.05,-0.06
2022-12-08 20:8:25.2710,-0.34,0.15,-0.54,0.13,0.02,-0.03
2022-12-08 20:8:25.2800,-0.39,0.17,-0.25,0.2,0.04,0.0
2022-12-08 20:8:25.2900,-0.39,0.16,-0.17,0.26,0.08,0.02
2022-12-08 20:8:25.3000,-0.31,0.28,-0.07,0.25,0.11,0.02
2022-12-08 20:8:25.3100,-0.31,0.28,-0.07,0.2,0.14,-0.01
2022-12-08 20:8:25.3200,-0.32,0.36,-0.08,0.11,0.17,-0.04
2022-12-08 20:8:25.3300,-0.35,0.43,-0.02,0.02,0.19,-0.06
2022-12-08 20:8:25.3400,-0.39,0.55,0.07,-0.04,0.18,-0.07
2022-12-08 20:8:25.3500,-0.4,0.51,0.25,-0.08,0.13,-0.08
2022-12-08 20:8:25.3600,-0.34,0.42,0.56,-0.09,0.06,-0.1
2022-12-08 20:8:25.3700,-0.26,0.32,0.85,-0.06,-0.02,-0.12
2022-12-08 20:8:25.3800,-0.19,0.2,1.11,-0.01,-0.03,-0.13
2022-12-08 20:8:25.3900,-0.23,0.21,1.12,0.04,0.04,-0.11
2022-12-08 20:8:25.4000,-0.41,0.43,0.79,0.04,0.09,-0.07
2022-12-08 20:8:25.4100,-0.67,0.48,0.44,-0.05,0.04,-0.05
2022-12-08 20:8:25.4200,-0.67,0.48,0.43510418057441713,-0.21,-0.05,-0.04
2022-12-08 20:8:25.4300,-0.45,0.48,0.58,-0.4,-0.17,-0.06
2022-12-08 20:8:25.4400,-0.45,0.48,0.58,-0.57,-0.31,-0.11
2022-12-08 20:8:25.4500,-0.14,0.29,1.06,-0.66,-0.43,-0.19
2022-12-08 20:8:25.4600,0.2,0.07,1.8,-0.64,-0.5,-0.29
2022-12-08 20:8:25.4690,0.46,-0.24,2.51,-0.51,-0.45,-0.36
2022-12-08 20:8:25.4790,0.63,-0.42,2.78,-0.31,-0.25,-0.37
2022-12-08 20:8:25.4890,0.62,-0.44,2.65,-0.07,0.04,-0.31
2022-12-08 20:8:25.4990,0.38,-0.39,2.22,0.13,0.32,-0.18
2022-12-08 20:8:25.5090,0.06,-0.25,1.58,0.25,0.52,-0.03
2022-12-08 20:8:25.5190,-0.2,-0.16,0.93,0.27,0.58,0.11
2022-12-08 20:8:25.5290,-0.29,0.08,0.47,0.22,0.52,0.19
2022-12-08 20:8:25.5390,-0.29,0.24,0.12,0.15,0.34,0.18
2022-12-08 20:8:25.5500,-0.19,0.29,0.01,0.07,0.08,0.09
2022-12-08 20:8:25.5590,-0.12,0.37,0.22,0.02,-0.17,-0.04
2022-12-08 20:8:25.5690,0.11,0.41,0.31,-0.01,-0.33,-0.2
2022-12-08 20:8:25.5790,0.42,0.24,0.37,-0.04,-0.41,-0.35
2022-12-08 20:8:25.5890,0.66,0.05,0.44,-0.08,-0.39,-0.46
2022-12-08 20:8:25.5990,0.71,-0.06,0.48,-0.1,-0.33,-0.53
2022-12-08 20:8:25.6090,0.67,-0.24,0.48,-0.11,-0.23,-0.54
2022-12-08 20:8:25.6190,0.6,-0.4,0.46,-0.1,-0.1,-0.5
2022-12-08 20:8:25.6290,0.49,-0.42,0.35,-0.07,0.05,-0.42
2022-12-08 20:8:25.6380,0.42,-0.4,0.1,-0.03,0.18,-0.34
2022-12-08 20:8:25.6480,0.34,-0.37,-0.08,0.01,0.26,-0.3
2022-12-08 20:8:25.6590,0.22,-0.32,-0.29,0.04,0.29,-0.27
2022-12-08 20:8:25.6680,0.16,-0.19,-0.55,0.07,0.25,-0.26
2022-12-08 20:8:25.6780,0.1,-0.1,-0.93,0.11,0.18,-0.26
2022-12-08 20:8:25.6880,-0.03,-0.12,-1.19,0.16,0.1,-0.27
2022-12-08 20:8:25.6980,-0.03,-0.12,-1.19,0.18,0.01,-0.3
2022-12-08 20:8:25.7090,-0.11,-0.07,-1.46,0.16,-0.06,-0.32
2022-12-08 20:8:25.7180,-0.11,-0.07,-1.46,0.12,-0.1,-0.35
2022-12-08 20:8:25.7280,-0.14,-0.13,-1.54,0.07,-0.11,-0.34
2022-12-08 20:8:25.7390,-0.18,-0.17,-1.55,0.05,-0.07,-0.29
2022-12-08 20:8:25.7480,-0.22,-0.11,-1.55,0.06,-0.02,-0.22
2022-12-08 20:8:25.7580,-0.22,-0.16,-1.5,0.07,0.04,-0.15
2022-12-08 20:8:25.7680,-0.2,-0.21,-1.45,0.08,0.08,-0.08
2022-12-08 20:8:25.7780,-0.16,-0.19,-1.43,0.06,0.09,-0.03
2022-12-08 20:8:25.7880,-0.07,-0.15,-1.34,0.04,0.08,-0.0
2022-12-08 20:8:25.7980,0.03,-0.07,-1.28,0.01,0.06,-0.0
2022-12-08 20:8:25.8080,0.13,0.04,-1.21,-0.0,0.02,-0.01
2022-12-08 20:8:25.8180,0.2,0.12,-1.08,-0.0,-0.01,-0.04
2022-12-08 20:8:25.8280,0.23,0.17,-0.93,0.01,-0.05,-0.06
2022-12-08 20:8:25.8380,0.19,0.2,-0.73,0.04,-0.07,-0.08
2022-12-08 20:8:25.8480,0.14,0.19,-0.52,0.09,-0.06,-0.07
2022-12-08 20:8:25.8580,0.08,0.15,-0.4,0.15,0.0,-0.04
2022-12-08 20:8:25.8680,0.01,0.14,-0.37,0.21,0.1,0.01
2022-12-08 20:8:25.8770,-0.1,0.14,-0.38,0.25,0.22,0.06
2022-12-08 20:8:25.8880,-0.26,0.2,-0.41,0.27,0.3,0.12
2022-12-08 20:8:25.8970,-0.4,0.29,-0.45,0.26,0.32,0.18
2022-12-08 20:8:25.9070,-0.46,0.36,-0.43,0.23,0.29,0.21
2022-12-08 20:8:25.9170,-0.5,0.4,-0.42,0.18,0.21,0.21
2022-12-08 20:8:25.9270,-0.53,0.39,-0.27,0.13,0.09,0.2
2022-12-08 20:8:25.9370,-0.51,0.37,-0.04,0.09,-0.05,0.17
2022-12-08 20:8:25.9470,-0.5,0.33,0.26,0.08,-0.16,0.16
2022-12-08 20:8:25.9570,-0.5,0.3,0.55,0.09,-0.23,0.16
2022-12-08 20:8:25.9670,-0.51,0.22,0.8,0.09,-0.23,0.18
2022-12-08 20:8:25.9770,-0.49,0.11,0.98,0.08,-0.14,0.22
2022-12-08 20:8:25.9870,-0.55,0.21,0.93,0.08,-0.02,0.27
2022-12-08 20:8:25.9970,-0.6,0.32,0.86,0.06,0.06,0.32
2022-12-08 20:8:26.0070,-0.6,0.32,0.86,-0.04,0.04,0.34
2022-12-08 20:8:26.0170,-0.49,0.33,1.01,-0.24,-0.04,0.3
