time,ax,ay,az,wx,wy,wz
2022-12-08 20:10:31.3490,0.02,0.33,0.72,-0.0,-0.25,0.02
2022-12-08 20:10:31.3580,-0.19,0.56,-1.0,0.17,-0.43,0.03
2022-12-08 20:10:31.3680,-0.52,0.01,0.85,0.23,-0.84,0.06
2022-12-08 20:10:31.3780,-0.52,0.01,0.85,0.22,-0.98,0.11
2022-12-08 20:10:31.3880,-0.28,0.61,1.02,0.22,-0.83,0.11
2022-12-08 20:10:31.3980,0.23,0.62,0.74,0.24,-0.55,0.13
2022-12-08 20:10:31.4080,0.68,0.85,0.86,0.25,-0.29,0.14
2022-12-08 20:10:31.4180,0.96,0.97,0.84,0.24,-0.18,0.13
2022-12-08 20:10:31.4280,0.7,0.84,1.04,0.24,-0.17,0.12
2022-12-08 20:10:31.4380,0.5,0.74,0.91,0.22,-0.21,0.11
2022-12-08 20:10:31.4480,0.29,0.74,1.01,0.2,-0.32,0.11
2022-12-08 20:10:31.4580,0.29,0.74,1.01,0.19,-0.46,0.13
2022-12-08 20:10:31.4680,-0.01,0.63,1.13,0.17,-0.59,0.13
2022-12-08 20:10:31.4770,-0.01,0.63,1.13,0.15,-0.64,0.14
2022-12-08 20:10:31.4880,-0.04,0.71,1.11,0.12,-0.56,0.15
2022-12-08 20:10:31.4980,0.03,0.85,0.86,0.1,-0.45,0.19
2022-12-08 20:10:31.5070,0.11,1.0,0.74,0.08,-0.34,0.23
2022-12-08 20:10:31.5180,0.12,1.03,0.61,0.05,-0.27,0.28
2022-12-08 20:10:31.5270,0.13,1.15,0.45,0.02,-0.27,0.27
2022-12-08 20:10:31.5370,0.17,1.19,0.69,-0.0,-0.28,0.23
2022-12-08 20:10:31.5470,0.51,1.31,0.71,0.01,-0.22,0.19
2022-12-08 20:10:31.5570,0.51,1.31,0.71,0.05,-0.19,0.17
2022-12-08 20:10:31.5670,0.66,1.33,0.58,0.09,-0.23,0.17
2022-12-08 20:10:31.5770,0.7,1.41,0.71,0.13,-0.31,0.15
2022-12-08 20:10:31.5870,0.69,1.5,0.64,0.16,-0.44,0.1
2022-12-08 20:10:31.5970,0.61,1.56,0.5,0.17,-0.58,0.05
2022-12-08 20:10:31.6070,0.54,1.68,0.42,0.14,-0.68,0.02
2022-12-08 20:10:31.6170,0.47,1.94,0.33,0.09,-0.7,0.02
2022-12-08 20:10:31.6270,0.45,2.29,0.13,-0.01,-0.63,0.04
2022-12-08 20:10:31.6370,0.53,2.59,-0.15,-0.1,-0.53,0.09
2022-12-08 20:10:31.6470,0.57,2.92,-0.44,-0.18,-0.41,0.12
2022-12-08 20:10:31.6570,0.51,3.16,-0.57,-0.33,-0.39,0.1
2022-12-08 20:10:31.6670,0.31,3.03,-0.58,-0.55,-0.55,0.01
2022-12-08 20:10:31.6770,0.08,2.78,-0.18,-0.85,-0.78,-0.09
2022-12-08 20:10:31.6860,-0.26,2.72,0.27,-1.11,-0.98,-0.13
2022-12-08 20:10:31.6970,-0.43,2.76,0.43,-1.31,-1.09,-0.13
2022-12-08 20:10:31.7060,-0.51,2.8,0.41,-1.44,-1.1,-0.07
2022-12-08 20:10:31.7160,-0.64,2.84,0.45,-1.5,-1.09,0.08
2022-12-08 20:10:31.7260,-0.71,2.93,0.53,-1.51,-1.06,0.24
2022-12-08 20:10:31.7360,-0.61,2.95,0.64,-1.56,-0.79,0.42
2022-12-08 20:10:31.7460,-0.27,2.59,0.38,-1.67,-0.47,0.58
2022-12-08 20:10:31.7560,0.25,1.88,0.59,-1.71,-0.17,0.76
2022-12-08 20:10:31.7660,0.53,0.95,1.19,-1.65,0.12,0.92
2022-12-08 20:10:31.7760,0.68,0.47,1.89,-1.56,0.5,1.07
2022-12-08 20:10:31.7860,1.09,-0.18,2.39,-1.4,0.88,1.19
2022-12-08 20:10:31.7960,1.43,-0.62,2.84,-1.13,1.13,1.26
2022-12-08 20:10:31.8060,1.49,-0.97,3.54,-0.79,1.17,1.31
2022-12-08 20:10:31.8160,1.33,-1.13,4.15,-0.39,1.11,1.28
2022-12-08 20:10:31.8260,1.25,-1.42,4.16,-0.0,0.99,1.21
2022-12-08 20:10:31.8360,1.36,-1.87,3.5,0.31,0.75,1.17
2022-12-08 20:10:31.8460,1.41,-2.09,2.64,0.48,0.39,1.15
2022-12-08 20:10:31.8560,1.35,-2.07,2.13,0.55,-0.03,1.1
2022-12-08 20:10:31.8660,1.39,-1.92,2.32,0.59,-0.33,0.98
2022-12-08 20:10:31.8760,1.73,-1.66,2.34,0.58,-0.34,0.78
2022-12-08 20:10:31.8860,2.04,-1.21,1.85,0.55,-0.31,0.56
2022-12-08 20:10:31.8960,2.29,-1.02,2.2,0.5,-0.22,0.39
2022-12-08 20:10:31.9050,2.37,-0.54,2.9,0.44,-0.02,0.32
2022-12-08 20:10:31.9150,2.55,0.04,2.66,0.41,0.24,0.34
2022-12-08 20:10:31.9250,2.95,-0.1,2.42,0.42,0.43,0.41
2022-12-08 20:10:31.9360,2.95,-0.1,2.42,0.44,0.56,0.46
2022-12-08 20:10:31.9450,2.65,-0.79,2.56,0.46,0.58,0.43
2022-12-08 20:10:31.9550,2.05,-1.64,2.53,0.45,0.42,0.35
2022-12-08 20:10:31.9650,1.28,-2.27,2.52,0.45,0.11,0.26
2022-12-08 20:10:31.9750,0.75,-2.41,2.85,0.46,-0.16,0.16
2022-12-08 20:10:31.9850,0.55,-2.34,2.93,0.52,-0.3,0.05
2022-12-08 20:10:31.9950,0.49,-1.91,2.55,0.6,-0.27,-0.07
2022-12-08 20:10:32.0050,0.38,-1.33,1.61,0.68,-0.22,-0.18
2022-12-08 20:10:32.0150,0.33,-0.73,0.54,0.7,-0.16,-0.27
2022-12-08 20:10:32.0250,0.19,-0.33,-0.51,0.63,-0.06,-0.34
2022-12-08 20:10:32.0350,-0.03,0.01,-1.57,0.54,0.0,-0.36
2022-12-08 20:10:32.0450,-0.27,0.24,-2.01,0.47,0.03,-0.3
2022-12-08 20:10:32.0550,-0.54,0.4,-2.61,0.39,0.1,-0.22
2022-12-08 20:10:32.0650,-0.74,0.61,-3.11,0.3,0.16,-0.17
2022-12-08 20:10:32.0750,-1.04,0.65,-3.0,0.21,0.19,-0.17
2022-12-08 20:10:32.0850,-1.49,0.52,-2.51,0.12,0.14,-0.15
2022-12-08 20:10:32.0940,-1.99,0.5,-1.97,0.06,0.04,-0.14
2022-12-08 20:10:32.1050,-2.27,0.48,-1.53,0.01,-0.05,-0.15
2022-12-08 20:10:32.1140,-2.39,0.45,-1.36,-0.03,-0.07,-0.19
2022-12-08 20:10:32.1240,-2.1,0.39,-1.32,-0.09,-0.04,-0.25
2022-12-08 20:10:32.1340,-1.71,0.51,-0.97,-0.11,0.09,-0.25
2022-12-08 20:10:32.1440,-1.83,0.97,0.54,0.06,0.26,-0.08
2022-12-08 20:10:32.1540,-1.83,0.97,0.54,0.26,0.51,0.07
2022-12-08 20:10:32.1640,-1.09,1.11,0.16,0.34,0.61,0.13
2022-12-08 20:10:32.1740,-0.59,0.59,0.06,0.31,0.59,0.24
2022-12-08 20:10:32.1840,-0.61,0.85,-0.13,0.2,0.44,0.28
2022-12-08 20:10:32.1940,-0.21,0.81,-0.6,0.05,0.28,0.29
2022-12-08 20:10:32.2040,0.1,0.67,-0.83,-0.09,0.14,0.29
2022-12-08 20:10:32.2140,0.28,1.58,0.07,-0.15,0.06,0.32
2022-12-08 20:10:32.2240,0.28,1.58,0.07,-0.19,-0.1,0.26
2022-12-08 20:10:32.2340,0.97,1.64,0.67,-0.21,-0.09,0.13
2022-12-08 20:10:32.2440,0.78,1.4,0.74,-0.18,0.0,0.04
2022-12-08 20:10:32.2540,0.54,1.82,0.79,-0.09,0.11,0.01
2022-12-08 20:10:32.2640,0.47,2.1,0.77,-0.0,0.2,0.01
2022-12-08 20:10:32.2740,0.34,2.1,0.65,0.07,0.3,0.02
2022-12-08 20:10:32.2830,0.32,2.03,0.47,0.1,0.4,0.02
2022-12-08 20:10:32.2940,0.39,2.01,0.17,0.09,0.45,0.03
2022-12-08 20:10:32.3040,0.38,2.01,0.2,-0.02,0.4,-0.02
2022-12-08 20:10:32.3130,0.32,1.89,0.49,-0.17,0.27,-0.09
2022-12-08 20:10:32.3240,0.37,1.77,0.89,-0.29,0.15,-0.15
2022-12-08 20:10:32.3340,0.44,1.7,1.26,-0.3,0.07,-0.19
2022-12-08 20:10:32.3440,0.58,1.96,1.62,-0.24,0.02,-0.19
2022-12-08 20:10:32.3530,0.58,1.96,1.62,-0.13,-0.0,-0.19
2022-12-08 20:10:32.3630,0.63,2.06,1.67,-0.03,0.05,-0.21
2022-12-08 20:10:32.3730,0.82,2.02,1.33,0.07,0.11,-0.24
2022-12-08 20:10:32.3830,0.9,2.06,1.12,0.18,0.16,-0.28
2022-12-08 20:10:32.3930,0.86,2.04,1.15,0.33,0.17,-0.29
2022-12-08 20:10:32.4030,0.7,2.03,1.28,0.47,0.12,-0.34
2022-12-08 20:10:32.4130,0.5,1.67,1.6,0.49,0.16,-0.39
2022-12-08 20:10:32.4230,0.4,0.96,1.33,0.43,0.19,-0.41
2022-12-08 20:10:32.4330,0.32,0.51,1.63,0.38,0.21,-0.39
2022-12-08 20:10:32.4430,0.07,0.2,2.0,0.36,0.24,-0.38
2022-12-08 20:10:32.4530,-0.12,-0.12,2.27,0.36,0.28,-0.39
2022-12-08 20:10:32.4630,-0.11,-0.28,2.4,0.39,0.32,-0.44
2022-12-08 20:10:32.4730,-0.11,-0.31,2.43,0.48,0.4,-0.5
2022-12-08 20:10:32.4830,-0.12,-0.54,2.27,0.68,0.5,-0.53
2022-12-08 20:10:32.4930,-0.42,-1.37,2.24,0.97,0.55,-0.44
2022-12-08 20:10:32.5030,-1.1,-2.07,2.38,1.19,0.58,-0.24
2022-12-08 20:10:32.5120,-1.61,-2.43,2.2,1.3,0.55,-0.12
2022-12-08 20:10:32.5230,-1.55,-3.53,2.23,1.22,0.54,-0.07
2022-12-08 20:10:32.5320,-1.33,-3.74,1.55,0.97,0.49,-0.07
2022-12-08 20:10:32.5430,-0.89,-3.53,1.16,0.62,0.34,-0.14
2022-12-08 20:10:32.5520,-0.6,-2.99,1.06,0.34,0.15,-0.26
2022-12-08 20:10:32.5630,-0.42,-2.69,0.93,0.23,0.11,-0.33
2022-12-08 20:10:32.5720,-0.38,-2.19,0.03,0.26,0.23,-0.31
2022-12-08 20:10:32.5830,-0.38,-2.05,-0.99,0.39,0.38,-0.22
2022-12-08 20:10:32.5920,-0.32,-2.07,-1.23,0.5,0.5,-0.09
2022-12-08 20:10:32.6020,-0.3254832127690315,-2.04,-1.2,0.54,0.53,0.07
2022-12-08 20:10:32.6120,-0.33,-2.04,-1.2,0.54,0.39,0.19
2022-12-08 20:10:32.6220,-0.31,-2.24,-0.86,0.45,0.33,0.26
2022-12-08 20:10:32.6320,-0.05,-2.66,-1.03,0.33,0.25,0.33
2022-12-08 20:10:32.6420,0.19,-2.19,-1.09,0.2,0.2,0.36
2022-12-08 20:10:32.6520,0.38,-1.86,-1.02,0.09,0.16,0.38
2022-12-08 20:10:32.6620,0.59,-1.55,-0.91,0.0,0.18,0.35
2022-12-08 20:10:32.6720,0.76,-1.21,-1.02,-0.05,0.2,0.31
2022-12-08 20:10:32.6820,0.84,-0.85,-0.96,-0.08,0.22,0.26
2022-12-08 20:10:32.6920,0.87,-0.37,-0.77,-0.1,0.23,0.19
2022-12-08 20:10:32.7020,0.87,0.17,-0.65,-0.11,0.23,0.09
2022-12-08 20:10:32.7110,0.85,0.64,-0.69,-0.09,0.21,-0.01
2022-12-08 20:10:32.7220,0.86,1.2,-0.82,-0.07,0.21,-0.09
2022-12-08 20:10:32.7320,0.98,1.86,-1.18,-0.04,0.22,-0.13
2022-12-08 20:10:32.7420,1.18,2.42,-1.4,-0.02,0.23,-0.16
2022-12-08 20:10:32.7520,1.34,2.89,-1.59,-0.03,0.22,-0.19
2022-12-08 20:10:32.7610,1.39,3.15,-1.89,-0.05,0.2,-0.22
2022-12-08 20:10:32.7710,1.42,3.2,-2.11,-0.06,0.18,-0.21
2022-12-08 20:10:32.7810,1.44,3.22,-2.12,-0.05,0.17,-0.18
2022-12-08 20:10:32.7910,1.32,3.24,-1.94,-0.04,0.14,-0.16
2022-12-08 20:10:32.8010,1.06,3.13,-1.67,-0.0,0.11,-0.12
2022-12-08 20:10:32.8110,0.72,2.95,-1.39,0.04,0.11,-0.08
2022-12-08 20:10:32.8210,0.41,2.87,-1.11,0.06,0.13,-0.07
2022-12-08 20:10:32.8310,0.26,2.72,-1.01,0.05,0.14,-0.06
2022-12-08 20:10:32.8410,0.2,2.7,-0.91,0.03,0.17,-0.05
2022-12-08 20:10:32.8510,0.21,2.72,-0.85,0.02,0.19,-0.02
2022-12-08 20:10:32.8610,0.1,2.55,-0.98,0.01,0.17,0.0
2022-12-08 20:10:32.8710,-0.12,2.47,-0.97,-0.04,0.13,-0.0
2022-12-08 20:10:32.8810,-0.28,2.33,-0.93,-0.04,0.07,0.02
2022-12-08 20:10:32.8910,-0.4,2.18,-0.81,0.01,0.02,0.08
2022-12-08 20:10:32.9010,-0.57,1.97,-0.45,0.03,-0.03,0.08
2022-12-08 20:10:32.9110,-0.56,1.66,-0.29,-0.01,-0.06,0.02
2022-12-08 20:10:32.9200,-0.32,1.38,-0.08,-0.04,-0.07,-0.06
2022-12-08 20:10:32.9300,0.01,0.94,0.33,-0.05,-0.1,-0.13
2022-12-08 20:10:32.9400,0.23,0.63,0.79,-0.03,-0.14,-0.17
2022-12-08 20:10:32.9510,0.26,0.33,1.12,0.0,-0.17,-0.19
2022-12-08 20:10:32.9600,0.25,0.04,1.32,-0.01,-0.22,-0.2
2022-12-08 20:10:32.9700,0.37,-0.22,1.58,-0.1,-0.21,-0.19
2022-12-08 20:10:32.9800,0.6,-0.22,1.33,-0.17,-0.23,-0.14
2022-12-08 20:10:32.9900,0.97,-0.4,1.48,-0.21,-0.22,-0.06
2022-12-08 20:10:33.0000,1.3,-0.53,1.49,-0.2,-0.09,0.05
2022-12-08 20:10:33.0100,1.76,-0.94,1.27,-0.07,0.07,0.16
2022-12-08 20:10:33.0200,2.05,-1.57,1.99,0.2,0.28,0.34
2022-12-08 20:10:33.0300,1.82,-2.13,2.61,0.49,0.36,0.44
2022-12-08 20:10:33.0400,1.26,-3.66,3.49,0.6,0.36,0.38
2022-12-08 20:10:33.0500,0.69,-4.82,3.61,0.56,0.27,0.2
2022-12-08 20:10:33.0600,0.6,-5.31,3.22,0.35,0.15,-0.02
2022-12-08 20:10:33.0700,0.56,-5.07,2.47,0.16,-0.02,-0.22
2022-12-08 20:10:33.0800,0.29,-4.92,2.05,0.1,-0.07,-0.36
2022-12-08 20:10:33.0900,-0.27,-4.43,0.96,0.1,-0.02,-0.43
2022-12-08 20:10:33.1000,-0.57,-3.7,-0.25,0.13,0.06,-0.44
2022-12-08 20:10:33.1090,-0.48,-2.96,-0.87,0.18,0.16,-0.41
2022-12-08 20:10:33.1190,-0.41,-2.54,-1.28,0.22,0.26,-0.36
2022-12-08 20:10:33.1290,-0.44,-2.49,-1.47,0.19,0.26,-0.31
2022-12-08 20:10:33.1390,-0.64,-2.54,-0.82,0.12,0.19,-0.3
2022-12-08 20:10:33.1500,-0.64,-2.54,-0.82,0.06,0.08,-0.29
2022-12-08 20:10:33.1590,-0.65,-2.53,-0.6,-0.01,0.03,-0.27
2022-12-08 20:10:33.1690,-0.65,-2.14,-0.74,-0.08,-0.04,-0.21
2022-12-08 20:10:33.1790,-0.76,-1.64,-0.78,-0.12,-0.15,-0.22
2022-12-08 20:10:33.1890,-0.84,-1.5,-0.64,-0.09,-0.14,-0.21
2022-12-08 20:10:33.1990,-0.88,-1.05,-0.82,-0.1,-0.01,-0.2
2022-12-08 20:10:33.2090,-0.93,-0.22,-1.29,-0.17,0.15,-0.2
2022-12-08 20:10:33.2190,-0.85,0.42,-1.54,-0.28,0.33,-0.21
2022-12-08 20:10:33.2290,-0.62,1.11,-1.78,-0.39,0.48,-0.11
2022-12-08 20:10:33.2390,-0.52,2.02,-2.07,-0.42,0.5,-0.15
2022-12-08 20:10:33.2490,-0.15,1.89,-2.0,-0.41,0.48,-0.23
2022-12-08 20:10:33.2590,0.1,1.94,-2.43,-0.36,0.33,-0.27
2022-12-08 20:10:33.2690,0.09,2.53,-2.34,-0.32,0.16,-0.28
2022-12-08 20:10:33.2790,0.2,2.74,-2.14,-0.25,0.08,-0.26
2022-12-08 20:10:33.2890,0.22,3.01,-2.24,-0.19,0.07,-0.23
2022-12-08 20:10:33.2990,0.14,3.25,-2.28,-0.16,0.09,-0.19
2022-12-08 20:10:33.3080,-0.01,3.33,-1.96,-0.15,0.17,-0.17
2022-12-08 20:10:33.3180,-0.15,3.26,-1.88,-0.14,0.25,-0.16
2022-12-08 20:10:33.3280,-0.26,3.16,-1.68,-0.11,0.29,-0.14
2022-12-08 20:10:33.3380,-0.33,3.14,-1.41,-0.09,0.3,-0.14
2022-12-08 20:10:33.3480,-0.33,2.88,-1.21,-0.1,0.25,-0.14
2022-12-08 20:10:33.3580,-0.48,2.77,-0.92,-0.08,0.16,-0.12
2022-12-08 20:10:33.3690,-0.48,2.77,-0.92,-0.05,0.07,-0.11
2022-12-08 20:10:33.3780,-0.62,2.57,-0.91,-0.04,-0.0,-0.1
2022-12-08 20:10:33.3880,-0.69,2.54,-0.67,-0.05,-0.03,-0.1
2022-12-08 20:10:33.3980,-0.67,2.57,-0.38,-0.05,-0.01,-0.12
2022-12-08 20:10:33.4080,-0.57,2.53,-0.18,-0.03,0.06,-0.13
2022-12-08 20:10:33.4180,-0.46,2.36,0.1,-0.01,0.09,-0.13
2022-12-08 20:10:33.4280,-0.41,2.13,0.52,0.05,0.13,-0.12
2022-12-08 20:10:33.4380,-0.51,1.88,0.85,0.09,0.16,-0.12
2022-12-08 20:10:33.4480,-0.59,1.42,1.02,0.12,0.15,-0.12
2022-12-08 20:10:33.4580,-0.6,0.94,1.28,0.13,0.12,-0.12
2022-12-08 20:10:33.4680,-0.41,0.12,1.69,0.12,0.1,-0.14
2022-12-08 20:10:33.4780,-0.41,0.12,1.69,0.13,0.09,-0.16
2022-12-08 20:10:33.4880,-0.19,-0.14,1.75,0.14,0.1,-0.22
2022-12-08 20:10:33.4980,0.16,-0.21,1.66,0.13,0.13,-0.31
2022-12-08 20:10:33.5080,0.53,-0.09,1.38,0.15,0.13,-0.36
2022-12-08 20:10:33.5180,0.7,0.03,1.17,0.21,0.17,-0.35
2022-12-08 20:10:33.5280,0.14,-1.29,1.55,0.41,0.25,-0.26
2022-12-08 20:10:33.5370,0.14,-1.29,1.55,0.75,0.22,-0.04
2022-12-08 20:10:33.5470,-1.7554250630736352,-3.27,3.01,1.04,0.09,0.1
2022-12-08 20:10:33.5570,-1.76,-3.27,3.01,1.09,0.05,0.12
2022-12-08 20:10:33.5670,-1.52,-4.32,2.9,0.8,0.23,0.14
2022-12-08 20:10:33.5770,-0.77,-4.15,1.93,0.33,0.4,0.08
2022-12-08 20:10:33.5870,-0.23,-4.29,1.9,0.01,0.49,0.01
2022-12-08 20:10:33.5970,-0.2,-4.28,2.17,-0.0,0.56,-0.01
2022-12-08 20:10:33.6070,-0.4,-3.91,2.16,0.19,0.61,0.01
2022-12-08 20:10:33.6170,-0.39,-3.73,1.92,0.4,0.61,0.05
2022-12-08 20:10:33.6270,-0.09,-3.7,1.77,0.51,0.57,0.1
2022-12-08 20:10:33.6370,0.2,-3.77,1.58,0.48,0.47,0.26
2022-12-08 20:10:33.6470,0.19,-3.38,1.18,0.39,0.4,0.22
2022-12-08 20:10:33.6570,0.57,-4.38,0.78,0.27,0.35,0.21
2022-12-08 20:10:33.6670,0.75,-3.48,-0.06,0.14,0.19,0.18
2022-12-08 20:10:33.6770,1.0,-2.92,0.03,0.05,-0.01,0.11
2022-12-08 20:10:33.6870,1.2,-2.65,0.11,0.03,-0.12,0.04
2022-12-08 20:10:33.6970,1.17,-1.87,-0.36,0.05,-0.12,0.01
2022-12-08 20:10:33.7070,1.14,-1.2,-1.0,0.08,-0.11,0.02
2022-12-08 20:10:33.7160,1.17,-0.89,-1.13,0.09,-0.13,0.03
2022-12-08 20:10:33.7260,1.18,-0.44,-1.22,0.09,-0.17,0.03
2022-12-08 20:10:33.7360,1.2,-0.01,-1.35,0.07,-0.2,0.03
2022-12-08 20:10:33.7460,1.28,0.59,-1.62,0.04,-0.23,0.01
2022-12-08 20:10:33.7560,1.39,1.03,-1.9,0.01,-0.25,-0.01
2022-12-08 20:10:33.7660,1.39,1.45,-2.12,-0.01,-0.27,-0.03
2022-12-08 20:10:33.7760,1.04,2.23,-2.35,-0.02,-0.25,-0.04
2022-12-08 20:10:33.7860,1.04,2.23,-2.35,-0.02,-0.23,-0.03
2022-12-08 20:10:33.7960,0.79,2.4,-2.52,-0.03,-0.22,-0.01
2022-12-08 20:10:33.8060,0.45,2.56,-2.65,-0.06,-0.2,-0.0
2022-12-08 20:10:33.8160,0.2,2.62,-2.73,-0.08,-0.2,0.03
2022-12-08 20:10:33.8260,-0.09,2.65,-2.69,-0.06,-0.21,0.06
2022-12-08 20:10:33.8360,-0.38,2.59,-2.53,-0.05,-0.2,0.11
2022-12-08 20:10:33.8460,-0.61,2.47,-2.25,-0.04,-0.17,0.16
2022-12-08 20:10:33.8560,-0.76,2.37,-1.98,-0.06,-0.12,0.2
2022-12-08 20:10:33.8660,-0.77,2.35,-1.81,-0.11,-0.09,0.22
2022-12-08 20:10:33.8760,-0.64,2.25,-1.64,-0.16,-0.08,0.24
2022-12-08 20:10:33.8860,-0.5,2.21,-1.44,-0.19,-0.08,0.25
2022-12-08 20:10:33.8950,-0.37,2.11,-1.29,-0.2,-0.13,0.25
2022-12-08 20:10:33.9060,-0.23,1.96,-0.99,-0.2,-0.14,0.25
2022-12-08 20:10:33.9160,0.01,1.82,-0.81,-0.19,-0.16,0.26
2022-12-08 20:10:33.9250,0.2,1.74,-0.56,-0.17,-0.21,0.27
2022-12-08 20:10:33.9350,0.38,1.57,-0.16,-0.15,-0.25,0.31
2022-12-08 20:10:33.9450,0.5,1.62,0.1,-0.12,-0.28,0.32
2022-12-08 20:10:33.9550,0.66,1.45,0.04,-0.09,-0.23,0.28
2022-12-08 20:10:33.9660,0.98,1.11,-0.07,-0.06,-0.25,0.22
2022-12-08 20:10:33.9750,1.07,1.51,0.18,-0.01,-0.24,0.15
2022-12-08 20:10:33.9850,1.2,1.19,0.47,0.08,-0.22,0.11
2022-12-08 20:10:33.9950,0.88,0.73,0.64,0.14,-0.2,0.09
2022-12-08 20:10:34.0050,0.88,0.73,0.53,0.12,-0.17,0.09
2022-12-08 20:10:34.0150,0.78,0.36,0.5405797648429871,0.06,-0.12,0.09
2022-12-08 20:10:34.0250,0.8533297884464265,0.1,0.64,-0.0,-0.06,0.1
2022-12-08 20:10:34.0350,0.85,0.1,0.64,-0.04,0.01,0.09
2022-12-08 20:10:34.0450,0.94,0.03,0.83,-0.04,0.09,0.1
2022-12-08 20:10:34.0550,0.99,-0.02,1.37,-0.02,0.16,0.14
2022-12-08 20:10:34.0650,0.99,-0.02,1.37,0.02,0.16,0.17
2022-12-08 20:10:34.0750,0.46,-0.85,2.08,0.16,0.12,0.19
2022-12-08 20:10:34.0850,0.46,-0.85,2.7805568647384646,0.42,-0.01,0.34
2022-12-08 20:10:34.0950,-0.8,-2.34,2.81,0.62,-0.14,0.48
2022-12-08 20:10:34.1050,-0.8,-2.34,2.81,0.57,-0.23,0.48
2022-12-08 20:10:34.1150,-0.64,-3.41,2.44,0.4,-0.36,0.41
2022-12-08 20:10:34.1240,-0.5555948299169541,-4.15,2.47,0.27,-0.43,0.26
2022-12-08 20:10:34.1350,-0.64,-4.04,1.62,0.18,-0.42,0.11
2022-12-08 20:10:34.1450,-0.82,-3.58,0.96,0.09,-0.33,-0.02
2022-12-08 20:10:34.1550,-0.82,-3.58,0.96,0.07,-0.2,-0.12
2022-12-08 20:10:34.1640,-1.19,-2.75,0.0,0.11,-0.06,-0.15
2022-12-08 20:10:34.1740,-1.36,-2.51,-0.35,0.17,0.05,-0.11
2022-12-08 20:10:34.1840,-1.64,-2.42,-0.53,0.23,0.08,-0.05
2022-12-08 20:10:34.1940,-1.64,-2.42,-0.53,0.26,0.06,0.01
2022-12-08 20:10:34.2040,-1.89,-2.36,-0.9038070470094681,0.23,-0.01,0.06
2022-12-08 20:10:34.2140,-2.09,-2.46,-0.82,0.11,-0.14,0.11
2022-12-08 20:10:34.2240,-2.07,-2.27,-0.45,-0.04,-0.28,0.13
2022-12-08 20:10:34.2340,-2.02,-2.13,-0.24,-0.18,-0.36,0.12
2022-12-08 20:10:34.2440,-2.02,-2.13,-0.10897046506404877,-0.26,-0.37,0.13
2022-12-08 20:10:34.2540,-1.85886727809906,-1.54,0.0,-0.28,-0.32,0.15
2022-12-08 20:10:34.2640,-1.59,-0.98,-0.27,-0.29,-0.21,0.16
2022-12-08 20:10:34.2740,-1.59,-0.98,-0.5573104029893875,-0.31,-0.13,0.15
2022-12-08 20:10:34.2840,-1.27,-0.33,-0.56,-0.33,-0.07,0.15
2022-12-08 20:10:34.2940,-0.81,0.93,-1.35,-0.34,-0.04,0.15
2022-12-08 20:10:34.3040,-0.81,0.93,-1.35,-0.36,-0.03,0.16
2022-12-08 20:10:34.3140,-0.49,1.92,-2.19,-0.39,-0.03,0.17
2022-12-08 20:10:34.3240,-0.32197956115007403,2.22,-2.45,-0.42,-0.05,0.18
2022-12-08 20:10:34.3340,-0.33,2.4778137660026553,-2.56,-0.46,-0.09,0.18
2022-12-08 20:10:34.3440,-0.05,2.61,-2.69,-0.5,-0.13,0.18
2022-12-08 20:10:34.3540,-0.05,2.61,-2.69,-0.53,-0.18,0.17
2022-12-08 20:10:34.3630,0.02,2.78,-2.5,-0.53,-0.19,0.16
2022-12-08 20:10:34.3730,0.18,3.04,-2.16,-0.49,-0.2,0.17
2022-12-08 20:10:34.3830,0.18,3.04,-2.16,-0.39,-0.22,0.19
2022-12-08 20:10:34.3930,0.2,3.04,-1.8699237781763078,-0.32,-0.21,0.2
2022-12-08 20:10:34.4030,0.18,3.03,-1.87,-0.3,-0.22,0.23
2022-12-08 20:10:34.4130,0.21,2.97,-1.67,-0.3,-0.2,0.25
2022-12-08 20:10:34.4230,0.3,2.88,-1.63,-0.31,-0.18,0.24
2022-12-08 20:10:34.4330,0.3,2.88,-1.63,-0.31,-0.19,0.32
2022-12-08 20:10:34.4430,0.26,2.85,-0.91,-0.3,-0.22,0.35
2022-12-08 20:10:34.4530,0.26,2.85,-0.91,-0.28,-0.13,0.28
2022-12-08 20:10:34.4630,0.26,2.39,-0.43,-0.3,-0.07,0.2
2022-12-08 20:10:34.4730,0.26,2.39,-0.43,-0.32,-0.04,0.14
2022-12-08 20:10:34.4830,-0.01854236137121916,2.3,0.89,-0.27,-0.01,0.1
2022-12-08 20:10:34.4930,-0.02,2.3,0.89,-0.15,-0.0,0.07
2022-12-08 20:10:34.5030,-0.37,1.94,1.65,-0.03,-0.05,0.09
2022-12-08 20:10:34.5130,-0.41,1.55,1.7,0.08,-0.1,0.11
2022-12-08 20:10:34.5230,-0.36,0.92,1.59,0.16,-0.13,0.12
2022-12-08 20:10:34.5320,-0.36,0.92,1.59,0.2,-0.15,0.13
2022-12-08 20:10:34.5420,-0.17,0.36,1.68,0.23,-0.13,0.11
2022-12-08 20:10:34.5520,0.1,-0.3,1.83,0.22,-0.09,0.03
2022-12-08 20:10:34.5620,0.37,-1.37,2.48,0.18,-0.07,-0.05
2022-12-08 20:10:34.5720,0.37,-1.37,2.89,0.15,-0.06,-0.11
2022-12-08 20:10:34.5820,0.37,-1.37,2.89,0.14,-0.01,-0.17
2022-12-08 20:10:34.5920,0.54,-1.48,2.94,0.17,0.08,-0.23
2022-12-08 20:10:34.6020,0.43,-1.88,2.83,0.27,0.21,-0.25
2022-12-08 20:10:34.6120,-0.13,-3.04,3.37,0.49,0.29,-0.19
2022-12-08 20:10:34.6220,-0.74,-3.86,3.76,0.75,0.34,-0.06
2022-12-08 20:10:34.6320,-0.74,-3.86,3.76,0.84,0.44,-0.01
2022-12-08 20:10:34.6420,-0.75,-4.38,3.42,0.73,0.49,-0.05
2022-12-08 20:10:34.6520,0.12,-3.92,2.5,0.4,0.61,-0.14
2022-12-08 20:10:34.6620,0.72,-3.17,2.01,0.05,0.6,-0.32
2022-12-08 20:10:34.6720,0.88,-2.06,1.15,-0.1,0.64,-0.48
2022-12-08 20:10:34.6820,1.0229592686891555,-1.2,0.08,-0.07,0.68,-0.56
2022-12-08 20:10:34.6920,0.9,-0.78,-0.55,0.03,0.65,-0.56
2022-12-08 20:10:34.7020,0.9,-0.78,-0.55,0.2,0.59,-0.48
2022-12-08 20:10:34.7120,0.12,-0.59,-1.87,0.34,0.52,-0.33
2022-12-08 20:10:34.7210,0.12,-0.8196305304765702,-2.22,0.43,0.43,-0.15
2022-12-08 20:10:34.7320,-0.41,-1.44,-2.14,0.44,0.34,-0.03
2022-12-08 20:10:34.7420,-0.28,-2.08,-1.73,0.38,0.28,0.05
2022-12-08 20:10:34.7510,-0.28,-2.4460657238960266,-1.27,0.26,0.24,0.07
2022-12-08 20:10:34.7610,0.09,-2.57,-0.64,0.14,0.15,0.03
2022-12-08 20:10:34.7710,0.09,-2.57,-0.19576478004455566,0.02,0.09,-0.07
2022-12-08 20:10:34.7810,0.33,-2.0768052846193314,-0.24,-0.05,0.09,-0.18
2022-12-08 20:10:34.7910,0.61,-2.08,-0.24,-0.06,0.19,-0.25
2022-12-08 20:10:34.8010,0.88,-1.58,-0.5,-0.04,0.28,-0.28
2022-12-08 20:10:34.8110,0.98,-0.83,-0.67,-0.02,0.33,-0.3
2022-12-08 20:10:34.8210,1.08,0.38,-1.17,-0.0,0.34,-0.31
2022-12-08 20:10:34.8310,1.08,0.38,-1.17,0.02,0.31,-0.32
2022-12-08 20:10:34.8410,1.11,0.97,-1.4,0.03,0.27,-0.32
2022-12-08 20:10:34.8510,1.08,1.44,-1.68,0.02,0.19,-0.32
2022-12-08 20:10:34.8610,0.77,2.21,-1.91,-0.0,0.11,-0.32
2022-12-08 20:10:34.8710,0.77,2.21,-1.91,-0.04,0.08,-0.3
2022-12-08 20:10:34.8810,0.38,2.65,-2.09,-0.04,0.07,-0.27
2022-12-08 20:10:34.8910,0.38,2.65,-2.09,-0.03,0.08,-0.22
2022-12-08 20:10:34.9010,-0.07,2.56,-1.78,-0.02,0.07,-0.17
2022-12-08 20:10:34.9100,-0.31,2.4,-1.49,0.0,0.05,-0.12
2022-12-08 20:10:34.9210,-0.48,2.24,-1.22,0.03,0.04,-0.06
2022-12-08 20:10:34.9310,-0.48,2.24,-1.22,0.05,0.04,-0.01
2022-12-08 20:10:34.9410,-0.56,1.822287096977234,-0.87,0.02,0.07,0.02
2022-12-08 20:10:34.9500,-0.47,1.7,-0.69,-0.04,0.07,0.03
2022-12-08 20:10:34.9600,-0.3447556355595589,1.65,-0.44,-0.09,0.05,0.02
2022-12-08 20:10:34.9700,-0.35,1.65,-0.44,-0.15,0.02,-0.01
2022-12-08 20:10:34.9800,-0.26,1.58,-0.37,-0.2,-0.04,-0.04
2022-12-08 20:10:34.9900,-0.19,1.72,-0.07373105049133301,-0.19,-0.05,-0.04
2022-12-08 20:10:35.0000,-0.09,2.264915474653244,-0.29,-0.18,-0.0,-0.03
2022-12-08 20:10:35.0100,0.24,2.36,-0.35,-0.18,0.04,-0.03
2022-12-08 20:10:35.0200,0.24,2.36,-0.35,-0.16,0.07,-0.01
2022-12-08 20:10:35.0300,0.24,2.25,-0.23,-0.12,0.09,0.04
2022-12-08 20:10:35.0400,0.24,2.25,-0.07463269114494324,-0.08,0.05,0.08
2022-12-08 20:10:35.0500,0.26,2.07,-0.0217007714509964,-0.06,-0.01,0.09
2022-12-08 20:10:35.0600,0.33,1.63,-0.03,-0.06,-0.13,0.06
2022-12-08 20:10:35.0700,0.35,0.91,1.1028836899995804,-0.07,-0.33,-0.0
2022-12-08 20:10:35.0800,0.08,0.24,1.1,-0.05,-0.65,-0.06
2022-12-08 20:10:35.0900,-0.68,-0.19,2.79,-0.04,-0.92,-0.09
2022-12-08 20:10:35.1000,-0.68,-0.1835037535429001,2.63,-0.05,-1.04,-0.14
2022-12-08 20:10:35.1100,-0.54,-0.19,2.63,-0.08,-1.02,-0.17
2022-12-08 20:10:35.1200,-0.09,-0.04,2.23,-0.15,-0.9,-0.2
2022-12-08 20:10:35.1300,0.46,0.1,1.66,-0.22,-0.69,-0.2
2022-12-08 20:10:35.1400,0.87,0.03,1.34,-0.21,-0.42,-0.1
2022-12-08 20:10:35.1500,1.04,-0.32,1.593328258395195,0.0,-0.09,0.17
2022-12-08 20:10:35.1590,0.95,-1.82,1.6,0.27,0.25,0.51
2022-12-08 20:10:35.1690,0.1,-3.0,2.65,0.41,0.24,0.54
2022-12-08 20:10:35.1790,0.1,-3.0,2.65,0.47,0.06,0.37
2022-12-08 20:10:35.1900,-0.22,-3.83,3.57,0.43,-0.03,0.17
2022-12-08 20:10:35.1990,0.3450491657853127,-3.49,2.16,0.28,-0.15,-0.03
2022-12-08 20:10:35.2090,0.34,-3.49,2.16,0.17,-0.26,-0.21
2022-12-08 20:10:35.2190,0.38,-3.33,1.78,0.2,-0.2,-0.29
2022-12-08 20:10:35.2290,-0.11,-2.45,-0.29,0.28,-0.12,-0.27
2022-12-08 20:10:35.2390,-0.11,-2.45,-0.29,0.35,-0.05,-0.2
2022-12-08 20:10:35.2490,-0.31,-1.9325492119789125,-1.44,0.38,0.02,-0.11
2022-12-08 20:10:35.2590,-0.41,-1.94,-1.44,0.37,0.07,-0.01
2022-12-08 20:10:35.2690,-0.41,-2.13,-1.71,0.34,0.06,0.03
2022-12-08 20:10:35.2790,-0.8,-2.98,-1.16,0.34,0.05,0.07
2022-12-08 20:10:35.2890,-0.8,-2.98,-1.16,0.31,0.02,0.09
2022-12-08 20:10:35.2990,-1.12,-2.98,-0.99,0.2,-0.03,0.08
2022-12-08 20:10:35.3090,-1.36,-2.94,-0.67,0.06,-0.05,0.05
2022-12-08 20:10:35.3190,-1.64,-2.45,-0.56,-0.05,-0.02,0.03
2022-12-08 20:10:35.3290,-1.64,-2.092037281394005,-0.5133989828824997,-0.1,-0.0,0.01
2022-12-08 20:10:35.3390,-1.73,-2.1,-0.52,-0.11,0.03,0.0
2022-12-08 20:10:35.3490,-1.66,-0.868026180267334,-1.18,-0.1,0.08,0.01
2022-12-08 20:10:35.3590,-1.42,-0.87,-1.18,-0.13,0.1,0.03
2022-12-08 20:10:35.3690,-1.23,-0.3,-1.59,-0.19,0.08,0.04
2022-12-08 20:10:35.3790,-0.86,0.56,-2.09,-0.26,0.03,0.05
2022-12-08 20:10:35.3880,-0.86,0.56,-2.09,-0.32,-0.02,0.07
2022-12-08 20:10:35.3980,-0.43,1.42,-2.03,-0.38,-0.08,0.08
2022-12-08 20:10:35.4080,-0.43,1.42,-2.03,-0.4,-0.08,0.08
2022-12-08 20:10:35.4180,-0.23,2.1087188029289248,-2.06,-0.42,-0.04,0.07
2022-12-08 20:10:35.4280,0.06,2.39,-2.06,-0.41,0.01,0.07
2022-12-08 20:10:35.4380,0.06,2.39,-2.06,-0.37,0.03,0.07
2022-12-08 20:10:35.4480,0.06,2.7787658625841143,-1.9,-0.28,0.04,0.08
2022-12-08 20:10:35.4580,0.21,2.88,-2.01,-0.2,0.07,0.09
2022-12-08 20:10:35.4680,0.21,2.88,-2.01,-0.19,0.08,0.1
2022-12-08 20:10:35.4780,0.25,2.92,-2.17,-0.25,0.08,0.1
2022-12-08 20:10:35.4880,0.25,2.92,-2.097840058207512,-0.29,0.05,0.08
2022-12-08 20:10:35.4980,0.26,2.91,-2.1,-0.31,0.02,0.06
2022-12-08 20:10:35.5080,0.28,2.9,-1.95,-0.29,-0.04,0.05
2022-12-08 20:10:35.5180,0.15,3.03,-1.22,-0.24,-0.1,0.05
2022-12-08 20:10:35.5280,0.15,3.03,-1.22,-0.18,-0.12,0.06
2022-12-08 20:10:35.5380,0.09,3.05,-1.01,-0.13,-0.11,0.06
2022-12-08 20:10:35.5470,0.04,3.01,-0.7550994890928269,-0.09,-0.09,0.06
2022-12-08 20:10:35.5580,-0.06,2.93,-0.76,-0.06,-0.1,0.05
2022-12-08 20:10:35.5680,-0.17,2.71,-0.49,-0.05,-0.11,0.02
2022-12-08 20:10:35.5780,-0.34,2.32,-0.29,-0.03,-0.16,-0.0
2022-12-08 20:10:35.5880,-0.57,2.04,0.2533434820175171,-0.01,-0.22,0.02
2022-12-08 20:10:35.5970,-0.96,1.33,0.52,0.02,-0.28,0.04
2022-12-08 20:10:35.6070,-1.12,0.77,1.06,0.07,-0.36,0.08
2022-12-08 20:10:35.6170,-1.21,0.2,1.66,0.15,-0.4,0.16
2022-12-08 20:10:35.6270,-1.08,-0.19,1.81,0.23,-0.37,0.21
2022-12-08 20:10:35.6370,-0.88,-0.85,2.04,0.28,-0.29,0.22
2022-12-08 20:10:35.6470,-0.88,-0.85,2.04,0.27,-0.21,0.2
2022-12-08 20:10:35.6570,-0.26,-1.29,2.28,0.19,-0.08,0.14
2022-12-08 20:10:35.6670,0.03636500358581543,-1.29,2.29,0.1,0.04,0.05
2022-12-08 20:10:35.6770,0.08,-1.31,2.29,0.03,0.14,-0.04
Time,-0.1,-1.72,2.38,0.06,0.21,-0.08
2022-12-08 20:10:35.6970,-0.65,-2.7,3.12,0.25,0.2,-0.02
2022-12-08 20:10:35.7070,-0.65,-2.7,3.12,0.56,0.22,0.17
2022-12-08 20:10:35.7170,-1.28,-3.38,3.49,0.71,0.26,0.3
2022-12-08 20:10:35.7270,-0.8114160695672036,-4.07,3.6,0.58,0.35,0.36
2022-12-08 20:10:35.7360,-0.17,-4.31,3.72,0.26,0.41,0.27
2022-12-08 20:10:35.7470,0.19,-3.54,3.53,-0.05,0.48,0.16
2022-12-08 20:10:35.7560,0.64,-3.05,3.68,-0.17,0.44,-0.03
2022-12-08 20:10:35.7660,0.95,-1.8,2.69,-0.09,0.49,-0.16
2022-12-08 20:10:35.7760,1.34,-0.75,1.31,0.01,0.54,-0.24
2022-12-08 20:10:35.7860,1.34,-0.75,1.31,0.07,0.5,-0.27
2022-12-08 20:10:35.7960,1.3755808711051942,0.06,-0.48,0.11,0.46,-0.23
2022-12-08 20:10:35.8060,1.37,0.06,-0.48,0.15,0.41,-0.15
2022-12-08 20:10:35.8160,1.2,-0.09,-1.44,0.19,0.36,-0.02
2022-12-08 20:10:35.8260,0.89,-0.42,-1.9532980567216873,0.23,0.28,0.1
2022-12-08 20:10:35.8360,0.59,-0.97,-1.96,0.21,0.14,0.15
2022-12-08 20:10:35.8460,0.42,-1.64,-0.86,0.14,0.04,0.15
2022-12-08 20:10:35.8560,0.5,-1.89,-0.49,0.03,0.01,0.1
2022-12-08 20:10:35.8660,0.5,-1.89,-0.49,-0.07,0.01,0.01
2022-12-08 20:10:35.8760,0.67,-1.73,0.04,-0.13,0.06,-0.09
2022-12-08 20:10:35.8860,0.67,-1.73,0.04,-0.13,0.15,-0.18
2022-12-08 20:10:35.8960,0.89,-1.0,-0.13,-0.07,0.23,-0.21
2022-12-08 20:10:35.9060,0.89,-1.0,-0.13,-0.03,0.27,-0.22
2022-12-08 20:10:35.9160,0.97,-0.51,-0.44,0.0,0.27,-0.23
2022-12-08 20:10:35.9260,1.08,-0.06,-0.88,0.01,0.24,-0.23
2022-12-08 20:10:35.9360,1.2043220642209054,0.94,-1.53,0.01,0.2,-0.23
2022-12-08 20:10:35.9460,1.17,1.39,-1.71,-0.0,0.16,-0.21
2022-12-08 20:10:35.9560,1.17,1.39,-1.71,-0.02,0.12,-0.18
2022-12-08 20:10:35.9660,1.08,1.81,-1.922026562690735,-0.05,0.06,-0.19
2022-12-08 20:10:35.9760,0.68,2.18,-1.84,-0.06,0.01,-0.17
2022-12-08 20:10:35.9850,0.68,2.18,-1.84,-0.06,0.03,-0.14
2022-12-08 20:10:35.9950,0.62,2.38,-2.04,-0.08,0.05,-0.11
2022-12-08 20:10:36.0050,0.43,2.38,-1.6196278649568558,-0.11,0.06,-0.08
2022-12-08 20:10:36.0150,0.05,2.29,-1.45,-0.13,0.07,-0.05
2022-12-08 20:10:36.0250,-0.08,2.14,-1.36,-0.14,0.08,-0.02
2022-12-08 20:10:36.0350,-0.16,2.0,-1.21,-0.12,0.06,-0.0
2022-12-08 20:10:36.0450,-0.16,2.0,-1.21,-0.11,0.01,0.02
2022-12-08 20:10:36.0550,-0.21,1.95,-1.08,-0.1,-0.03,0.03
2022-12-08 20:10:36.0650,-0.22,1.96,-1.0,-0.11,-0.06,0.04
2022-12-08 20:10:36.0750,-0.07,1.92,-0.88,-0.14,-0.06,0.03
2022-12-08 20:10:36.0850,0.05,1.91,-0.65,-0.15,-0.07,0.02
2022-12-08 20:10:36.0950,0.05,1.91,-0.65,-0.14,-0.06,0.01
2022-12-08 20:10:36.1050,0.12,2.01,-0.33,-0.09,-0.05,0.03
2022-12-08 20:10:36.1150,0.2204835918545723,1.97,-0.01,-0.04,-0.03,0.05
2022-12-08 20:10:36.1250,0.29,1.84,0.04,-0.0,-0.02,0.08
2022-12-08 20:10:36.1350,0.34,1.69,0.13,0.02,-0.03,0.11
2022-12-08 20:10:36.1450,0.36,1.46,0.27,0.01,-0.06,0.12
2022-12-08 20:10:36.1550,0.36,1.46,0.27,-0.01,-0.1,0.12
2022-12-08 20:10:36.1650,0.36,1.12,0.42,-0.01,-0.14,0.13
2022-12-08 20:10:36.1740,0.28,0.77,1.02,0.02,-0.19,0.15
2022-12-08 20:10:36.1840,0.31,0.44,1.19,0.06,-0.19,0.16
2022-12-08 20:10:36.1940,0.31,0.44,1.521875867843628,0.08,-0.19,0.17
2022-12-08 20:10:36.2040,0.47,-0.22,1.86,0.07,-0.19,0.16
2022-12-08 20:10:36.2140,0.76,-0.38,1.9,0.03,-0.1,0.13
2022-12-08 20:10:36.2240,0.76,-0.38,2.009571075439453,-0.03,0.02,0.11
2022-12-08 20:10:36.2340,1.09,-0.37,2.0,-0.11,0.15,0.08
2022-12-08 20:10:36.2440,1.25,-0.25,2.33,-0.17,0.24,0.07
2022-12-08 20:10:36.2540,1.06,-0.19,2.62,-0.19,0.26,0.1
2022-12-08 20:10:36.2640,0.6069459548592567,-0.45,2.97,-0.09,0.18,0.16
2022-12-08 20:10:36.2740,0.6,-0.45,2.97,0.16,0.01,0.28
2022-12-08 20:10:36.2840,0.04,-1.06,3.36,0.44,-0.2,0.38
2022-12-08 20:10:36.2940,-0.23,-1.84,3.55,0.55,-0.36,0.37
2022-12-08 20:10:36.3040,0.11,-3.25,2.51,0.48,-0.39,0.3
2022-12-08 20:10:36.3140,0.22,-3.27,2.05,0.32,-0.36,0.25
2022-12-08 20:10:36.3240,0.18520441621541978,-4.08,2.51,0.24,-0.42,0.04
2022-12-08 20:10:36.3340,-0.26,-3.4,1.6,0.24,-0.36,-0.12
2022-12-08 20:10:36.3440,-0.26,-3.4,1.6,0.26,-0.2,-0.22
2022-12-08 20:10:36.3530,-0.82,-2.66,0.48,0.29,-0.08,-0.22
2022-12-08 20:10:36.3640,-1.2,-2.45,-0.06,0.35,0.01,-0.19
2022-12-08 20:10:36.3730,-1.38,-2.4,-0.6,0.39,0.05,-0.13
2022-12-08 20:10:36.3830,-1.38,-2.4,-0.9822766810655594,0.4,0.04,-0.06
2022-12-08 20:10:36.3930,-1.327957638502121,-2.24,-1.21,0.39,-0.02,0.01
2022-12-08 20:10:36.4030,-1.33,-2.24,-1.21,0.36,-0.13,0.05
2022-12-08 20:10:36.4130,-1.1491418901085855,-2.01,-1.4,0.29,-0.19,0.05
2022-12-08 20:10:36.4230,-1.15,-1.5999198246002198,-1.46,0.16,-0.23,0.02
2022-12-08 20:10:36.4330,-0.91,-1.16,-1.46,0.05,-0.23,-0.0
2022-12-08 20:10:36.4430,-0.91,-1.16,-1.46,0.0,-0.21,-0.02
2022-12-08 20:10:36.4530,-0.9240834367275238,-0.29,-1.69,0.01,-0.15,-0.01
2022-12-08 20:10:36.4630,-0.93,-0.29,-1.69,0.02,-0.1,0.0
2022-12-08 20:10:36.4720,-0.91,0.5,-2.11,0.03,-0.05,0.03
2022-12-08 20:10:36.4830,-0.85,0.89,-2.29,0.02,-0.01,0.06
2022-12-08 20:10:36.4930,-0.85,0.89,-2.29,-0.01,0.0,0.09
2022-12-08 20:10:36.5030,-0.76,1.23,-2.48,-0.06,0.02,0.13
2022-12-08 20:10:36.5130,-0.46,1.73,-2.74,-0.12,-0.0,0.12
2022-12-08 20:10:36.5230,-0.44,2.05,-2.41,-0.17,-0.07,0.14
2022-12-08 20:10:36.5330,-0.44,2.05,-2.41,-0.15,-0.1,0.13
2022-12-08 20:10:36.5430,-0.28,2.11,-2.23,-0.14,-0.07,0.11
2022-12-08 20:10:36.5530,-0.22,2.06,-2.24,-0.18,-0.07,0.1
2022-12-08 20:10:36.5630,-0.35,2.18,-1.8326349145174028,-0.22,-0.07,0.09
2022-12-08 20:10:36.5720,-0.59,2.3,-1.67,-0.21,-0.06,0.11
2022-12-08 20:10:36.5830,-0.59,2.33,-1.54,-0.18,-0.09,0.12
2022-12-08 20:10:36.5920,-0.63,2.4,-1.18,-0.13,-0.15,0.13
2022-12-08 20:10:36.6020,-0.63,2.4,-1.18,-0.13,-0.17,0.13
2022-12-08 20:10:36.6120,-0.3304206016659737,2.86,-1.64,-0.21,-0.11,0.26
2022-12-08 20:10:36.6220,-0.34,2.86,-1.64,-0.28,-0.11,0.15
2022-12-08 20:10:36.6320,0.17,2.43,-1.22,-0.35,-0.05,0.1
2022-12-08 20:10:36.6420,0.43,2.59,-0.47,-0.37,-0.04,0.05
2022-12-08 20:10:36.6520,0.43,2.59,-0.47,-0.35,0.02,0.01
2022-12-08 20:10:36.6620,0.52,2.72,-0.17,-0.32,0.08,-0.02
2022-12-08 20:10:36.6720,0.41,2.9,0.33,-0.27,0.08,-0.04
2022-12-08 20:10:36.6820,0.41,2.9,0.33,-0.21,0.05,-0.05
2022-12-08 20:10:36.6920,0.19,2.61,0.61,-0.11,-0.02,-0.04
2022-12-08 20:10:36.7020,0.19,2.61,0.61,0.02,-0.13,0.0
2022-12-08 20:10:36.7120,-0.14,1.55,1.36,0.16,-0.24,0.03
2022-12-08 20:10:36.7220,-0.24,1.09,1.68,0.26,-0.3,0.09
2022-12-08 20:10:36.7310,-0.24,1.09,1.68,0.35,-0.35,0.06
2022-12-08 20:10:36.7420,-0.34,-0.59,2.51,0.42,-0.28,0.08
2022-12-08 20:10:36.7520,-0.2,-1.1,2.62,0.42,-0.19,0.05
2022-12-08 20:10:36.7620,-0.06,-1.47,2.58,0.33,-0.09,-0.01
2022-12-08 20:10:36.7710,0.12,-1.33,2.32,0.25,0.0,-0.1
2022-12-08 20:10:36.7820,0.12,-1.33,2.32,0.21,0.09,-0.19
2022-12-08 20:10:36.7920,0.51,-0.92,1.35,0.23,0.17,-0.28
2022-12-08 20:10:36.8010,0.51,-0.85,1.25,0.32,0.17,-0.32
2022-12-08 20:10:36.8110,0.11,-1.46,1.36,0.51,0.14,-0.25
2022-12-08 20:10:36.8210,-0.68,-2.26,1.63,0.78,0.06,-0.07
2022-12-08 20:10:36.8320,-0.68,-2.26,1.63,0.99,-0.01,0.05
2022-12-08 20:10:36.8410,-0.72,-3.43,1.3,0.97,0.06,0.05
2022-12-08 20:10:36.8510,-0.08,-3.3,1.19,0.74,0.19,-0.02
2022-12-08 20:10:36.8610,-0.08,-3.3,1.19,0.43,0.39,-0.14
2022-12-08 20:10:36.8710,0.27,-3.1,0.7,0.18,0.56,-0.28
2022-12-08 20:10:36.8810,-0.13,-2.78,0.45,0.08,0.66,-0.38
2022-12-08 20:10:36.8910,-0.13,-2.78,0.45,0.13,0.69,-0.4
2022-12-08 20:10:36.9010,-0.934468968808651,-2.62,-0.34,0.23,0.72,-0.34
2022-12-08 20:10:36.9110,-0.94,-2.62,-0.34,0.31,0.74,-0.24
2022-12-08 20:10:36.9210,-1.1650702902674677,-3.09,-1.08,0.31,0.71,-0.15
2022-12-08 20:10:36.9310,-0.92,-3.32,-0.94,0.27,0.67,-0.11
2022-12-08 20:10:36.9410,-0.5,-3.25,-0.67,0.21,0.62,-0.11
2022-12-08 20:10:36.9510,-0.5,-3.25,-0.67,0.11,0.55,-0.16
2022-12-08 20:10:36.9610,0.29,-2.64,-0.57,-0.0,0.53,-0.21
2022-12-08 20:10:36.9710,0.57,-2.18,-0.55,-0.07,0.55,-0.24
2022-12-08 20:10:36.9810,0.57,-2.18,-0.55,-0.1,0.59,-0.25
2022-12-08 20:10:36.9910,0.73,-1.15,-1.06,-0.11,0.62,-0.25
2022-12-08 20:10:37.0000,0.79,-0.71,-1.26,-0.08,0.62,-0.23
2022-12-08 20:10:37.0100,0.79,-0.71,-1.26,-0.05,0.61,-0.22
2022-12-08 20:10:37.0200,0.8,-0.31,-1.5494986993074418,-0.02,0.57,-0.21
2022-12-08 20:10:37.0300,0.64,0.49,-1.73,-0.03,0.52,-0.21
2022-12-08 20:10:37.0400,0.52,0.8,-1.97,-0.05,0.47,-0.2
2022-12-08 20:10:37.0500,0.42,1.11,-1.98,-0.08,0.4,-0.18
2022-12-08 20:10:37.0600,0.35,1.39,-2.09,-0.12,0.31,-0.18
2022-12-08 20:10:37.0700,0.27,1.6,-2.28,-0.19,0.22,-0.19
2022-12-08 20:10:37.0800,0.21,1.8,-2.14,-0.22,0.12,-0.18
2022-12-08 20:10:37.0900,0.01,1.99,-2.06,-0.24,0.06,-0.15
2022-12-08 20:10:37.1000,-0.2,2.11,-2.07,-0.24,0.04,-0.13
2022-12-08 20:10:37.1100,-0.2,2.11,-2.07,-0.23,0.05,-0.08
2022-12-08 20:10:37.1200,-0.31,2.19,-2.04,-0.24,0.05,-0.04
2022-12-08 20:10:37.1300,-0.38,2.32,-1.85,-0.23,0.04,-0.0
2022-12-08 20:10:37.1400,-0.39,2.44,-1.65,-0.23,0.02,0.04
2022-12-08 20:10:37.1500,-0.28,2.54,-1.63,-0.24,0.03,0.06
2022-12-08 20:10:37.1600,-0.03,2.56,-1.63,-0.27,0.03,0.08
2022-12-08 20:10:37.1700,0.26,2.47,-1.35,-0.3,-0.02,0.08
2022-12-08 20:10:37.1800,0.3,2.29,-1.14,-0.31,-0.07,0.08
2022-12-08 20:10:37.1900,0.3,2.29,-1.14,-0.32,-0.13,0.07
2022-12-08 20:10:37.1990,0.33,2.09,-0.93,-0.33,-0.17,0.09
2022-12-08 20:10:37.2090,0.37,2.11,-0.58,-0.34,-0.19,0.11
2022-12-08 20:10:37.2200,0.43,2.18,-0.24,-0.33,-0.19,0.12
2022-12-08 20:10:37.2290,0.64,2.13,0.39,-0.3,-0.18,0.15
2022-12-08 20:10:37.2390,0.64,2.13,0.39,-0.27,-0.19,0.18
2022-12-08 20:10:37.2490,0.69,1.94,0.73,-0.22,-0.23,0.22
2022-12-08 20:10:37.2590,0.72,1.68,1.08,-0.18,-0.27,0.25
2022-12-08 20:10:37.2690,0.7,1.35,1.26,-0.17,-0.29,0.26
2022-12-08 20:10:37.2790,0.73,0.99,1.35,-0.15,-0.32,0.25
2022-12-08 20:10:37.2890,0.76,0.66,1.54,-0.12,-0.37,0.23
2022-12-08 20:10:37.2990,0.74,0.43,1.78,-0.07,-0.41,0.19
2022-12-08 20:10:37.3090,0.62,0.23,1.96,-0.02,-0.41,0.16
2022-12-08 20:10:37.3190,0.49,-0.03,2.04,0.02,-0.4,0.14
2022-12-08 20:10:37.3290,0.4,-0.24,2.21,0.07,-0.35,0.12
2022-12-08 20:10:37.3390,0.32,-0.4,2.36,0.1,-0.26,0.1
2022-12-08 20:10:37.3480,0.36,-0.57,2.43,0.13,-0.15,0.09
2022-12-08 20:10:37.3590,0.49,-0.61,2.46,0.16,-0.02,0.09
2022-12-08 20:10:37.3690,0.62,-0.63,2.37,0.2,0.08,0.08
2022-12-08 20:10:37.3790,0.69,-0.66,2.18,0.21,0.13,0.07
2022-12-08 20:10:37.3880,0.7,-0.56,1.94,0.21,0.12,0.06
2022-12-08 20:10:37.3990,0.71,-0.46,1.7,0.3,0.01,0.1
2022-12-08 20:10:37.4090,0.39,-0.76,1.72,0.52,-0.17,0.18
2022-12-08 20:10:37.4180,-0.31,-1.47,1.89,0.67,-0.32,0.2
2022-12-08 20:10:37.4280,-0.8,-2.18,1.66,0.65,-0.37,0.14
2022-12-08 20:10:37.4380,-0.75,-2.68,1.3,0.53,-0.37,0.07
2022-12-08 20:10:37.4480,-0.61,-3.18,1.29,0.36,-0.29,-0.03
2022-12-08 20:10:37.4630,-0.57,-3.19,0.62,0.21,-0.12,-0.12
2022-12-08 20:10:37.4680,-0.74,-3.15,0.07,0.13,0.04,-0.19
2022-12-08 20:10:37.4780,-0.74,-3.15,0.07,0.11,0.15,-0.22
2022-12-08 20:10:37.4880,-0.95,-3.06,-0.42,0.11,0.19,-0.23
2022-12-08 20:10:37.4980,-1.1,-2.88,-0.81,0.11,0.18,-0.22
2022-12-08 20:10:37.5080,-1.17,-2.71,-1.27,0.1,0.16,-0.19
2022-12-08 20:10:37.5180,-1.26,-2.6,-1.73,0.08,0.12,-0.15
2022-12-08 20:10:37.5280,-1.22,-2.4,-1.99,0.05,0.05,-0.11
2022-12-08 20:10:37.5380,-1.06,-2.18,-1.76,-0.0,-0.04,-0.11
2022-12-08 20:10:37.5480,-1.06,-2.18,-1.76,-0.07,-0.12,-0.11
2022-12-08 20:10:37.5580,-0.84,-1.91,-1.5,-0.11,-0.18,-0.11
2022-12-08 20:10:37.5680,-0.61,-1.58,-1.1,-0.1,-0.2,-0.09
2022-12-08 20:10:37.5770,-0.4,-1.27,-0.9,-0.09,-0.19,-0.08
2022-12-08 20:10:37.5870,-0.24,-0.88,-0.7,-0.09,-0.16,-0.07
2022-12-08 20:10:37.5970,-0.1,-0.43,-0.69,-0.09,-0.12,-0.06
2022-12-08 20:10:37.6070,-0.01,0.02,-0.79,-0.1,-0.07,-0.05
2022-12-08 20:10:37.6170,0.04,0.45,-0.92,-0.12,-0.01,-0.04
2022-12-08 20:10:37.6270,-0.11,1.23,-1.32,-0.15,0.03,-0.04
2022-12-08 20:10:37.6370,-0.11,1.23,-1.32,-0.19,0.05,-0.03
2022-12-08 20:10:37.6470,-0.29,1.56,-1.53,-0.21,0.05,-0.02
2022-12-08 20:10:37.6570,-0.44,1.87,-1.63,-0.23,0.03,-0.01
2022-12-08 20:10:37.6670,-0.57,2.11,-1.88,-0.26,0.0,-0.01
2022-12-08 20:10:37.6770,-0.68,2.29,-2.05,-0.28,-0.05,-0.0
2022-12-08 20:10:37.6870,-0.76,2.53,-1.93,-0.26,-0.12,0.01
2022-12-08 20:10:37.6970,-0.74,2.74,-1.76,-0.21,-0.15,0.03
2022-12-08 20:10:37.7070,-0.69,2.89,-1.61,-0.19,-0.16,0.04
2022-12-08 20:10:37.7170,-0.61,2.96,-1.57,-0.2,-0.15,0.03
2022-12-08 20:10:37.7270,-0.46,3.0,-1.44,-0.23,-0.14,0.04
2022-12-08 20:10:37.7370,-0.32,3.09,-1.26,-0.23,-0.13,0.05
2022-12-08 20:10:37.7470,-0.2,3.14,-1.12,-0.2,-0.11,0.06
2022-12-08 20:10:37.7570,-0.09,3.14,-1.06,-0.16,-0.1,0.08
2022-12-08 20:10:37.7670,0.01,3.06,-0.88,-0.14,-0.07,0.11
2022-12-08 20:10:37.7770,0.01,3.06,-0.88,-0.13,-0.03,0.13
2022-12-08 20:10:37.7870,-0.05,2.78,-0.76,-0.13,-0.02,0.17
2022-12-08 20:10:37.7960,-0.12,2.49,-0.48,-0.12,-0.02,0.17
2022-12-08 20:10:37.8060,-0.12,2.24,-0.26,-0.13,-0.03,0.15
2022-12-08 20:10:37.8160,-0.12,2.12,-0.16,-0.15,0.0,0.21
2022-12-08 20:10:37.8260,-0.04,2.29,-0.15,-0.14,-0.03,0.1
2022-12-08 20:10:37.8360,0.07,1.34,0.37,-0.07,-0.01,0.05
2022-12-08 20:10:37.8460,-0.09,1.23,0.8,0.01,-0.01,0.01
2022-12-08 20:10:37.8560,-0.24,0.74,1.38,0.06,0.0,-0.0
2022-12-08 20:10:37.8660,-0.41,-0.09,1.71,0.09,-0.0,-0.01
2022-12-08 20:10:37.8760,-0.48,-0.66,2.36,0.11,-0.0,-0.01
2022-12-08 20:10:37.8860,-0.43,-1.11,2.36,0.12,0.02,-0.03
2022-12-08 20:10:37.8960,-0.2,-1.18,2.47,0.09,0.07,-0.09
2022-12-08 20:10:37.9060,0.25,-1.0,2.31,0.09,0.14,-0.17
2022-12-08 20:10:37.9160,0.63,-0.82,2.14,0.16,0.21,-0.19
2022-12-08 20:10:37.9260,0.64,-1.15,2.2,0.36,0.18,-0.08
2022-12-08 20:10:37.9360,0.04,-2.07,2.83,0.6,0.04,0.01
2022-12-08 20:10:37.9460,-0.73,-3.21,3.59,0.68,-0.03,0.06
2022-12-08 20:10:37.9560,-0.75,-3.9,3.55,0.59,-0.0,0.0
2022-12-08 20:10:37.9660,0.48,-3.92,3.13,0.36,0.1,-0.03
2022-12-08 20:10:37.9760,0.48,-3.92,3.13,0.15,0.19,-0.15
2022-12-08 20:10:37.9860,0.68,-3.49,3.09,-0.01,0.25,-0.35
2022-12-08 20:10:37.9960,0.88,-2.59,2.58,-0.06,0.38,-0.51
2022-12-08 20:10:38.0060,0.77,-1.68,1.6,0.03,0.46,-0.55
2022-12-08 20:10:38.0160,0.34,-0.96,0.99,0.23,0.52,-0.47
2022-12-08 20:10:38.0260,-0.11,-1.0,0.56,0.45,0.55,-0.32
2022-12-08 20:10:38.0360,-0.49,-0.86,-0.24,0.56,0.49,-0.18
2022-12-08 20:10:38.0450,-0.87,-1.02,-0.87,0.53,0.44,-0.08
2022-12-08 20:10:38.0550,-1.11,-1.3,-1.59,0.45,0.37,-0.03
2022-12-08 20:10:38.0650,-0.78,-1.59,-1.63,0.34,0.36,-0.02
2022-12-08 20:10:38.0750,-0.38,-1.86,-1.37,0.2,0.3,-0.05
2022-12-08 20:10:38.0850,-0.02,-1.98,-0.61,0.05,0.22,-0.13
2022-12-08 20:10:38.0950,0.23,-1.99,0.05,-0.04,0.21,-0.2
2022-12-08 20:10:38.1050,0.46,-1.85,0.24,-0.05,0.26,-0.22
2022-12-08 20:10:38.1150,0.63,-1.46,0.26,-0.03,0.34,-0.23
2022-12-08 20:10:38.1250,0.74,-1.06,0.07,-0.0,0.37,-0.23
2022-12-08 20:10:38.1350,0.84,-0.6,-0.13,0.02,0.37,-0.22
2022-12-08 20:10:38.1450,0.93,-0.16,-0.4,0.03,0.33,-0.2
2022-12-08 20:10:38.1600,1.08,0.62,-1.21,0.02,0.24,-0.19
2022-12-08 20:10:38.1660,1.08,0.62,-1.21,0.0,0.14,-0.19
2022-12-08 20:10:38.1740,1.08,1.01,-1.48,-0.0,0.03,-0.18
2022-12-08 20:10:38.1850,0.86,1.64,-1.76,-0.01,-0.05,-0.17
2022-12-08 20:10:38.1950,0.73,1.78,-1.93,-0.03,-0.09,-0.15
2022-12-08 20:10:38.2050,0.73,1.78,-1.93,-0.05,-0.11,-0.12
2022-12-08 20:10:38.2150,0.59,1.91,-1.95,-0.05,-0.09,-0.08
2022-12-08 20:10:38.2240,0.43,2.05,-1.95,-0.05,-0.07,-0.04
2022-12-08 20:10:38.2350,0.29,2.13,-1.94,-0.04,-0.05,-0.02
2022-12-08 20:10:38.2440,0.01,2.23,-2.03,-0.01,-0.02,-0.0
2022-12-08 20:10:38.2540,0.01,2.23,-2.03,-0.01,-0.0,0.01
2022-12-08 20:10:38.2640,-0.1,2.21,-2.16,-0.04,-0.01,0.03
2022-12-08 20:10:38.2740,-0.18,2.07,-2.19,-0.06,-0.06,0.01
2022-12-08 20:10:38.2840,-0.19,1.93,-2.02,-0.08,-0.11,-0.01
2022-12-08 20:10:38.2940,0.0,1.91,-1.67,-0.09,-0.13,-0.01
2022-12-08 20:10:38.3040,0.0,1.91,-1.67,-0.09,-0.14,-0.02
2022-12-08 20:10:38.3140,0.11,1.85,-1.44,-0.09,-0.17,-0.03
2022-12-08 20:10:38.3240,0.2,1.81,-1.14,-0.09,-0.2,-0.03
2022-12-08 20:10:38.3340,0.36,1.84,-0.8,-0.08,-0.21,-0.03
2022-12-08 20:10:38.3440,0.45,1.92,-0.62,-0.07,-0.2,-0.02
2022-12-08 20:10:38.3540,0.47,2.01,-0.53,-0.05,-0.18,-0.01
2022-12-08 20:10:38.3640,0.34,1.99,-0.1,-0.01,-0.17,0.02
2022-12-08 20:10:38.3740,0.34,1.99,-0.1,0.01,-0.2,0.07
2022-12-08 20:10:38.3840,0.16,1.88,0.12,0.05,-0.22,0.12
2022-12-08 20:10:38.3940,0.08,1.67,0.34,0.08,-0.25,0.17
2022-12-08 20:10:38.4040,0.02,1.36,0.57,0.08,-0.29,0.19
2022-12-08 20:10:38.4130,0.14,0.49,1.37,0.07,-0.32,0.21
2022-12-08 20:10:38.4240,0.14,0.49,1.37,0.05,-0.31,0.2
2022-12-08 20:10:38.4330,0.18,-0.02,1.84,0.02,-0.29,0.17
2022-12-08 20:10:38.4430,0.18,-0.43,2.33,-0.04,-0.24,0.14
2022-12-08 20:10:38.4530,0.19,-0.58,2.67,-0.1,-0.16,0.1
2022-12-08 20:10:38.4640,0.32,-0.45,2.68,-0.11,-0.04,0.09
2022-12-08 20:10:38.4730,0.66,0.0,2.19,-0.07,0.05,0.13
2022-12-08 20:10:38.4830,0.58,-0.19,2.1,-0.01,0.06,0.23
2022-12-08 20:10:38.4930,0.58,-0.19,2.1,0.18,-0.13,0.35
2022-12-08 20:10:38.5030,0.14,-1.31,2.95,0.41,-0.41,0.51
2022-12-08 20:10:38.5130,-0.4,-2.05,3.57,0.48,-0.71,0.55
2022-12-08 20:10:38.5230,-0.52,-3.21,3.92,0.38,-0.97,0.46
2022-12-08 20:10:38.5330,-0.48,-4.12,4.08,0.25,-1.01,0.34
2022-12-08 20:10:38.5430,-0.25,-4.3,3.75,0.17,-0.73,0.21
2022-12-08 20:10:38.5530,-0.16,-3.97,2.74,0.11,-0.34,0.06
2022-12-08 20:10:38.5630,-0.32,-3.16,1.6,0.07,-0.03,-0.05
2022-12-08 20:10:38.5730,-0.65,-2.54,0.57,0.06,0.08,-0.11
2022-12-08 20:10:38.5830,-0.9,-2.09,-0.27,0.12,0.08,-0.09
2022-12-08 20:10:38.5930,-0.84,-1.63,-0.98,0.2,0.01,-0.02
2022-12-08 20:10:38.6030,-0.97,-1.28,-1.67,0.29,-0.09,0.04
2022-12-08 20:10:38.6120,-1.56,-1.6,-2.16,0.31,-0.22,0.09
2022-12-08 20:10:38.6230,-1.56,-1.6,-2.16,0.26,-0.32,0.12
2022-12-08 20:10:38.6330,-1.87,-1.88,-1.93,0.16,-0.4,0.14
2022-12-08 20:10:38.6420,-2.05,-1.96,-1.65,0.04,-0.44,0.14
2022-12-08 20:10:38.6520,-2.03,-1.93,-1.28,-0.07,-0.45,0.14
2022-12-08 20:10:38.6630,-1.77,-1.77,-0.9,-0.17,-0.38,0.12
2022-12-08 20:10:38.6720,-1.36,-1.57,-0.64,-0.23,-0.28,0.11
2022-12-08 20:10:38.6820,-0.9,-1.25,-0.56,-0.27,-0.15,0.07
2022-12-08 20:10:38.6920,-0.54,-0.93,-0.48,-0.28,-0.06,0.06
2022-12-08 20:10:38.7020,-0.21,-0.52,-0.53,-0.27,-0.0,0.05
2022-12-08 20:10:38.7120,-0.02,-0.17,-0.65,-0.25,0.03,0.03
2022-12-08 20:10:38.7220,0.16,0.26,-1.0,-0.25,0.03,0.03
2022-12-08 20:10:38.7320,0.28,0.75,-1.22,-0.27,0.01,0.03
2022-12-08 20:10:38.7420,0.34,1.14,-1.51,-0.28,-0.02,0.03
2022-12-08 20:10:38.7520,0.31,1.52,-1.85,-0.25,-0.08,0.05
2022-12-08 20:10:38.7620,0.23,1.82,-1.89,-0.21,-0.11,0.06
2022-12-08 20:10:38.7720,0.14,1.96,-1.92,-0.19,-0.13,0.05
2022-12-08 20:10:38.7820,0.01,2.07,-2.03,-0.21,-0.16,0.06
2022-12-08 20:10:38.7920,-0.08,2.21,-1.89,-0.21,-0.12,0.07
2022-12-08 20:10:38.8020,-0.12,2.23,-1.84,-0.19,-0.06,0.06
2022-12-08 20:10:38.8120,-0.19,2.32,-1.75,-0.18,-0.01,0.07
2022-12-08 20:10:38.8220,-0.25,2.33,-1.49,-0.19,0.05,0.05
2022-12-08 20:10:38.8310,-0.29,2.24,-1.45,-0.19,0.1,0.03
2022-12-08 20:10:38.8420,-0.23,2.19,-1.41,-0.19,0.12,0.01
2022-12-08 20:10:38.8520,-0.18,2.21,-1.26,-0.18,0.11,0.0
2022-12-08 20:10:38.8620,-0.09,2.11,-1.16,-0.17,0.07,-0.02
2022-12-08 20:10:38.8710,0.02,2.09,-1.04,-0.15,0.02,-0.04
2022-12-08 20:10:38.8810,0.19,2.08,-0.91,-0.1,0.0,-0.04
2022-12-08 20:10:38.8910,0.35,2.2,-0.67,-0.07,-0.03,-0.02
2022-12-08 20:10:38.9010,0.48,2.38,-0.52,-0.06,0.03,-0.07
2022-12-08 20:10:38.9110,0.68,2.05,-0.7,-0.05,0.04,-0.1
2022-12-08 20:10:38.9210,0.69,2.24,-0.64,-0.03,0.05,-0.11
2022-12-08 20:10:38.9310,0.6,2.09,-0.52,-0.0,0.08,-0.11
2022-12-08 20:10:38.9410,0.39,1.9,-0.56,-0.0,0.08,-0.11
2022-12-08 20:10:38.9510,0.11,1.48,-0.43,-0.0,0.08,-0.09
2022-12-08 20:10:38.9610,-0.28,0.95,-0.16,0.04,0.09,-0.09
2022-12-08 20:10:38.9710,-0.64,0.17,0.34,0.11,0.18,-0.07
2022-12-08 20:10:38.9810,-0.84,-0.25,0.39,0.12,0.19,-0.07
2022-12-08 20:10:38.9910,-0.96,-0.47,0.78,0.1,0.16,-0.08
2022-12-08 20:10:39.0000,-0.81,-0.99,1.38,0.07,0.14,-0.1
2022-12-08 20:10:39.0110,-0.58,-1.03,1.55,0.02,0.15,-0.13
2022-12-08 20:10:39.0200,-0.22,-0.97,1.64,-0.03,0.14,-0.21
2022-12-08 20:10:39.0300,0.49,-0.68,1.46,-0.04,0.19,-0.27
2022-12-08 20:10:39.0400,0.49,-0.68,1.46,0.01,0.29,-0.29
2022-12-08 20:10:39.0500,0.76,-0.43,1.12,0.12,0.39,-0.28
2022-12-08 20:10:39.0600,0.66,-0.57,1.05,0.28,0.45,-0.14
2022-12-08 20:10:39.0700,-0.02,-1.37,1.47,0.52,0.43,-0.01
2022-12-08 20:10:39.0800,-1.09,-2.64,2.48,0.7,0.51,0.08
2022-12-08 20:10:39.0900,-1.63,-2.8,2.45,0.66,0.51,0.07
2022-12-08 20:10:39.1000,-1.23,-2.97,2.6,0.45,0.53,0.03
2022-12-08 20:10:39.1100,-0.93,-2.99,2.7,0.18,0.55,-0.02
2022-12-08 20:10:39.1200,-0.65,-2.93,2.24,-0.07,0.55,-0.11
2022-12-08 20:10:39.1300,-0.39,-2.71,1.9,-0.18,0.55,-0.21
2022-12-08 20:10:39.1400,-0.14,-2.33,1.66,-0.14,0.57,-0.27
2022-12-08 20:10:39.1500,0.06,-1.99,1.17,-0.03,0.62,-0.29
2022-12-08 20:10:39.1600,0.19,-1.8,0.66,0.08,0.63,-0.24
2022-12-08 20:10:39.1700,0.06,-1.79,0.18,0.11,0.6,-0.18
2022-12-08 20:10:39.1800,0.06,-1.79,0.18,0.11,0.52,-0.11
2022-12-08 20:10:39.1900,-0.09,-2.01,0.3,0.1,0.42,-0.02
2022-12-08 20:10:39.2000,-0.13,-2.04,0.57,0.11,0.37,0.03
2022-12-08 20:10:39.2100,0.06,-2.17,0.5,0.08,0.34,0.04
2022-12-08 20:10:39.2190,0.35,-1.75,0.25,0.04,0.23,-0.02
2022-12-08 20:10:39.2300,0.73,-1.41,0.33,0.02,0.17,-0.07
2022-12-08 20:10:39.2390,1.13,-0.98,-0.05,0.04,0.16,-0.12
2022-12-08 20:10:39.2490,1.55,-0.47,-0.57,0.09,0.16,-0.17
2022-12-08 20:10:39.2590,1.78,-0.01,-0.81,0.11,0.17,-0.21
2022-12-08 20:10:39.2700,1.82,0.49,-1.09,0.11,0.15,-0.21
2022-12-08 20:10:39.2790,1.68,0.79,-1.23,0.1,0.09,-0.2
2022-12-08 20:10:39.2890,1.32,0.98,-1.27,0.09,0.02,-0.19
2022-12-08 20:10:39.2990,1.08,1.13,-1.32,0.09,-0.03,-0.18
2022-12-08 20:10:39.3090,0.92,1.32,-1.32,0.1,-0.07,-0.17
2022-12-08 20:10:39.3190,0.73,1.56,-1.32,0.1,-0.07,-0.16
2022-12-08 20:10:39.3290,0.56,1.73,-1.37,0.1,-0.06,-0.16
2022-12-08 20:10:39.3390,0.39,1.89,-1.41,0.08,-0.05,-0.15
2022-12-08 20:10:39.3490,0.15,1.99,-1.45,0.06,-0.05,-0.13
2022-12-08 20:10:39.3590,-0.04,2.05,-1.4,0.04,-0.06,-0.1
2022-12-08 20:10:39.3690,-0.22,2.16,-1.35,0.02,-0.05,-0.08
2022-12-08 20:10:39.3790,-0.31,2.25,-1.29,-0.01,-0.02,-0.05
2022-12-08 20:10:39.3890,-0.33,2.37,-1.31,-0.04,0.0,-0.03
2022-12-08 20:10:39.3990,-0.33,2.36,-1.42,-0.08,-0.01,-0.0
2022-12-08 20:10:39.4090,-0.34,2.26,-1.46,-0.12,-0.04,0.03
2022-12-08 20:10:39.4180,-0.34,2.29,-1.38,-0.15,-0.05,0.05
2022-12-08 20:10:39.4280,-0.3,2.26,-1.37,-0.18,-0.05,0.06
2022-12-08 20:10:39.4390,-0.26,2.23,-1.29,-0.21,-0.05,0.07
2022-12-08 20:10:39.4490,-0.2,2.26,-1.04,-0.22,-0.07,0.11
2022-12-08 20:10:39.4590,-0.11,2.31,-0.8,-0.2,-0.09,0.12
2022-12-08 20:10:39.4680,-0.01,2.3,-0.7,-0.17,-0.13,0.14
2022-12-08 20:10:39.4780,0.18,2.34,-0.61,-0.14,-0.15,0.14
2022-12-08 20:10:39.4880,0.49,2.24,-0.5,-0.14,-0.13,0.13
2022-12-08 20:10:39.4980,0.45,2.04,-0.35,-0.13,-0.09,0.13
2022-12-08 20:10:39.5080,0.45,2.04,-0.35,-0.13,-0.05,0.14
2022-12-08 20:10:39.5180,0.26,1.64,-0.1,-0.12,-0.05,0.17
2022-12-08 20:10:39.5280,0.02,1.21,0.39,-0.07,-0.05,0.2
2022-12-08 20:10:39.5380,-0.16,0.64,0.86,-0.0,-0.05,0.23
2022-12-08 20:10:39.5480,-0.23,0.15,1.27,0.04,-0.1,0.23
2022-12-08 20:10:39.5580,-0.08,-0.34,1.97,0.05,-0.15,0.21
2022-12-08 20:10:39.5680,0.26,-0.81,2.51,-0.0,-0.14,0.17
2022-12-08 20:10:39.5780,0.7,-0.68,2.47,-0.07,-0.15,0.11
2022-12-08 20:10:39.5880,1.17,-0.74,2.79,-0.09,-0.08,0.04
2022-12-08 20:10:39.5980,1.59,-0.61,2.88,-0.06,0.02,0.01
2022-12-08 20:10:39.6080,1.92,-0.34,2.63,0.11,0.06,0.03
2022-12-08 20:10:39.6180,1.81,-0.8,2.92,0.44,0.01,0.18
2022-12-08 20:10:39.6270,0.98,-1.39,2.85,0.77,-0.18,0.32
2022-12-08 20:10:39.6370,-0.08,-2.46,2.89,0.91,-0.37,0.29
2022-12-08 20:10:39.6480,-0.41,-3.44,2.61,0.85,-0.51,0.18
2022-12-08 20:10:39.6580,-0.05,-3.66,2.39,0.63,-0.51,0.06
2022-12-08 20:10:39.6670,0.46,-3.87,2.07,0.4,-0.37,-0.09
2022-12-08 20:10:39.6770,0.61,-3.8,1.72,0.28,-0.15,-0.24
2022-12-08 20:10:39.6870,0.31,-3.34,1.5,0.27,0.07,-0.31
2022-12-08 20:10:39.6970,-0.28,-2.97,1.04,0.31,0.21,-0.29
2022-12-08 20:10:39.7070,-1.2,-2.5,-0.42,0.36,0.28,-0.21
2022-12-08 20:10:39.7170,-1.2,-2.5,-0.42,0.39,0.26,-0.14
2022-12-08 20:10:39.7270,-1.52,-2.56,-1.26,0.35,0.13,-0.07
2022-12-08 20:10:39.7370,-1.84,-2.66,-1.42,0.29,-0.03,-0.02
2022-12-08 20:10:39.7470,-2.03,-2.8,-1.45,0.23,-0.17,0.01
2022-12-08 20:10:39.7570,-2.11,-2.92,-1.17,0.17,-0.24,0.01
2022-12-08 20:10:39.7670,-1.99,-2.85,-0.93,0.04,-0.24,0.0
2022-12-08 20:10:39.7770,-1.73,-2.44,-0.97,-0.08,-0.25,-0.02
2022-12-08 20:10:39.7870,-1.49,-2.0,-0.68,-0.16,-0.18,-0.03
2022-12-08 20:10:39.7970,-1.31,-1.55,-0.87,-0.18,-0.11,-0.02
2022-12-08 20:10:39.8070,-1.13,-1.0,-1.24,-0.2,-0.1,-0.01
2022-12-08 20:10:39.8160,-0.91,-0.42,-1.36,-0.23,-0.09,-0.0
2022-12-08 20:10:39.8260,-0.69,0.03,-1.63,-0.26,-0.1,0.02
2022-12-08 20:10:39.8370,-0.52,0.54,-1.88,-0.3,-0.11,0.04
2022-12-08 20:10:39.8460,-0.43,0.94,-2.01,-0.33,-0.12,0.04
2022-12-08 20:10:39.8560,-0.35,1.3,-2.12,-0.35,-0.13,0.05
2022-12-08 20:10:39.8660,-0.3,1.59,-2.2,-0.38,-0.17,0.05
2022-12-08 20:10:39.8760,-0.41,1.84,-2.21,-0.4,-0.23,0.04
2022-12-08 20:10:39.8860,-0.38,1.97,-2.33,-0.41,-0.26,0.05
2022-12-08 20:10:39.8960,-0.2,2.22,-2.34,-0.41,-0.28,0.06
2022-12-08 20:10:39.9060,-0.07,2.56,-2.29,-0.38,-0.28,0.07
2022-12-08 20:10:39.9160,-0.05,2.75,-2.26,-0.34,-0.26,0.06
2022-12-08 20:10:39.9260,-0.01,2.97,-2.23,-0.29,-0.2,0.07
2022-12-08 20:10:39.9360,-0.01,2.97,-2.23,-0.26,-0.15,0.07
2022-12-08 20:10:39.9460,-0.02,2.98,-2.13,-0.26,-0.11,0.07
2022-12-08 20:10:39.9560,-0.02,2.94,-1.97,-0.25,-0.11,0.09
2022-12-08 20:10:39.9660,-0.07,2.83,-1.78,-0.22,-0.14,0.09
2022-12-08 20:10:39.9760,-0.12,2.67,-1.49,-0.19,-0.17,0.09
2022-12-08 20:10:39.9860,-0.13,2.65,-1.18,-0.2,-0.17,0.07
2022-12-08 20:10:39.9960,-0.03,2.57,-1.03,-0.23,-0.14,0.06
2022-12-08 20:10:40.0060,0.02,2.49,-0.78,-0.24,-0.11,0.04
2022-12-08 20:10:40.0160,-0.01,2.35,-0.5,-0.22,-0.1,0.02
2022-12-08 20:10:40.0260,-0.03,2.14,-0.17,-0.14,-0.12,0.01
2022-12-08 20:10:40.0360,-0.11,2.09,0.35,-0.06,-0.1,-0.01
2022-12-08 20:10:40.0460,-0.15,1.84,0.36,-0.01,-0.1,0.0
2022-12-08 20:10:40.0560,-0.18,1.65,0.47,0.02,-0.11,0.02
2022-12-08 20:10:40.0650,-0.28,1.25,0.59,0.05,-0.15,0.04
2022-12-08 20:10:40.0750,-0.45,0.81,0.77,0.11,-0.19,0.06
2022-12-08 20:10:40.0850,-0.63,0.27,1.06,0.15,-0.22,0.08
2022-12-08 20:10:40.0950,-0.78,-0.8,1.94,0.16,-0.2,0.08
2022-12-08 20:10:40.1060,-0.65,-1.23,2.32,0.14,-0.15,0.04
2022-12-08 20:10:40.1150,-0.65,-1.23,2.5422880893945696,0.1,-0.04,-0.03
2022-12-08 20:10:40.1250,-0.37,-1.37,2.54,0.04,0.09,-0.13
2022-12-08 20:10:40.1350,0.04,-1.23,2.44,0.03,0.24,-0.23
2022-12-08 20:10:40.1450,0.4,-0.94,2.01,0.08,0.33,-0.27
2022-12-08 20:10:40.1550,0.57,-0.66,1.72,0.21,0.37,-0.24
2022-12-08 20:10:40.1650,0.44,-0.73,1.55,0.39,0.35,-0.11
2022-12-08 20:10:40.1750,-0.13,-1.38,1.61,0.56,0.25,0.03
2022-12-08 20:10:40.1850,-0.89,-2.48,2.05,0.59,0.22,0.07
2022-12-08 20:10:40.1950,-1.1,-3.4,2.2,0.48,0.17,0.06
2022-12-08 20:10:40.2050,-0.95,-4.06,2.67,0.28,0.29,0.05
2022-12-08 20:10:40.2150,-0.82,-4.4,2.64,-0.01,0.44,-0.04
2022-12-08 20:10:40.2250,-0.38,-3.79,1.98,-0.23,0.46,-0.26
2022-12-08 20:10:40.2350,0.1,-3.35,2.34,-0.25,0.61,-0.39
2022-12-08 20:10:40.2440,0.44,-2.14,1.46,-0.13,0.73,-0.42
2022-12-08 20:10:40.2540,0.64,-1.25,0.77,-0.0,0.8,-0.36
2022-12-08 20:10:40.2640,0.45,-0.79,-0.05,0.09,0.76,-0.25
2022-12-08 20:10:40.2740,0.13,-0.77,-0.74,0.17,0.66,-0.13
2022-12-08 20:10:40.2840,-0.18,-0.99,-1.25,0.22,0.52,-0.03
2022-12-08 20:10:40.2940,-0.19,-1.48,-1.26,0.22,0.39,0.04
2022-12-08 20:10:40.3040,-0.09,-2.02,-0.98,0.15,0.27,0.08
2022-12-08 20:10:40.3140,0.0,-2.32,-0.37,0.06,0.12,0.11
2022-12-08 20:10:40.3240,0.05,-2.3,0.38,0.02,0.12,0.06
2022-12-08 20:10:40.3340,0.24,-2.55,0.49,0.01,0.13,0.03
2022-12-08 20:10:40.3440,0.86,-1.51,0.35,0.03,0.16,0.01
2022-12-08 20:10:40.3540,0.86,-1.51,0.35,0.05,0.19,0.0
2022-12-08 20:10:40.3640,1.15,-0.94,-0.06,0.06,0.18,-0.01
2022-12-08 20:10:40.3740,1.37,-0.33,-0.44,0.06,0.14,-0.04
2022-12-08 20:10:40.3840,1.55,0.22,-0.75,0.05,0.1,-0.08
2022-12-08 20:10:40.3940,1.76,1.39,-1.41,0.03,0.07,-0.13
2022-12-08 20:10:40.4040,1.76,1.39,-1.41,0.02,0.02,-0.15
2022-12-08 20:10:40.4140,1.68,1.87,-1.41,0.02,-0.03,-0.18
2022-12-08 20:10:40.4240,1.46,2.14,-1.59,-0.01,-0.08,-0.22
2022-12-08 20:10:40.4340,1.27,2.32,-2.02,-0.04,-0.11,-0.22
2022-12-08 20:10:40.4430,1.11,2.53,-2.06,-0.02,-0.13,-0.18
2022-12-08 20:10:40.4540,0.81,2.69,-1.98,0.01,-0.12,-0.12
2022-12-08 20:10:40.4630,0.41,2.69,-1.95,0.03,-0.09,-0.06
2022-12-08 20:10:40.4730,0.06,2.66,-1.91,0.04,-0.05,-0.01
2022-12-08 20:10:40.4830,-0.19,2.53,-1.85,0.02,0.01,0.04
2022-12-08 20:10:40.4930,-0.34,2.33,-1.9,-0.01,0.04,0.08
2022-12-08 20:10:40.5030,-0.42,2.23,-1.88,-0.06,0.06,0.1
2022-12-08 20:10:40.5130,-0.43,1.91,-1.83,-0.11,0.07,0.1
2022-12-08 20:10:40.5230,-0.47,1.79,-1.49,-0.15,0.04,0.09
2022-12-08 20:10:40.5330,-0.47,1.79,-1.49,-0.18,-0.0,0.08
2022-12-08 20:10:40.5430,-0.45,1.77,-1.18,-0.2,-0.01,0.08
2022-12-08 20:10:40.5530,-0.31,1.78,-1.11,-0.21,0.01,0.08
2022-12-08 20:10:40.5630,0.08,1.79,-0.75,-0.21,0.0,0.08
2022-12-08 20:10:40.5730,0.08,1.79,-0.75,-0.19,-0.01,0.08
2022-12-08 20:10:40.5830,0.24,1.75,-0.58,-0.17,-0.02,0.08
2022-12-08 20:10:40.5930,0.41,1.7,-0.52,-0.15,-0.02,0.09
2022-12-08 20:10:40.6030,0.58,1.64,-0.46,-0.12,-0.05,0.1
2022-12-08 20:10:40.6130,0.66,1.52,-0.33,-0.08,-0.09,0.12
2022-12-08 20:10:40.6230,0.68,1.29,-0.18,-0.06,-0.14,0.15
2022-12-08 20:10:40.6330,0.66,0.92,0.04,-0.03,-0.21,0.17
2022-12-08 20:10:40.6430,0.59,0.53,0.44,0.01,-0.26,0.19
2022-12-08 20:10:40.6530,0.48,0.09,0.93,0.01,-0.27,0.17
2022-12-08 20:10:40.6620,0.47,-0.47,1.14,-0.03,-0.28,0.14
2022-12-08 20:10:40.6720,0.45645499616861346,-0.92,1.83,-0.08,-0.23,0.11
2022-12-08 20:10:40.6830,0.55,-1.0,1.91,-0.09,-0.11,0.11
2022-12-08 20:10:40.6920,0.5,-1.38,2.04,-0.05,0.02,0.14
2022-12-08 20:10:40.7020,0.5,-1.38,2.04,0.08,0.08,0.26
2022-12-08 20:10:40.7120,0.08,-2.3,2.56,0.23,-0.03,0.38
2022-12-08 20:10:40.7220,-0.45,-3.62,3.24,0.27,-0.21,0.3
2022-12-08 20:10:40.7320,-0.07,-4.77,3.73,0.14,-0.32,0.13
2022-12-08 20:10:40.7420,-0.07,-4.77,3.73,-0.05,-0.4,-0.03
2022-12-08 20:10:40.7520,0.43,-4.47,4.18,-0.19,-0.32,-0.16
2022-12-08 20:10:40.7620,1.44,-2.88,3.71,-0.17,-0.25,-0.31
2022-12-08 20:10:40.7720,1.44,-2.88,3.71,-0.03,-0.18,-0.38
2022-12-08 20:10:40.7820,1.54,-1.56,3.32,0.13,-0.13,-0.4
2022-12-08 20:10:40.7920,1.41,-0.7,2.34,0.27,-0.07,-0.38
2022-12-08 20:10:40.8020,0.99,-0.47,1.12,0.37,-0.06,-0.31
2022-12-08 20:10:40.8120,0.42,-0.24,-0.14,0.42,-0.04,-0.21
2022-12-08 20:10:40.8220,-0.23,-0.21,-1.31,0.39,0.01,-0.07
2022-12-08 20:10:40.8320,-0.99,-0.09,-2.31,0.27,0.01,0.01
2022-12-08 20:10:40.8410,-1.83,-0.63,-2.67,0.14,-0.03,0.05
2022-12-08 20:10:40.8520,-2.58,-1.49,-2.45,0.06,-0.07,0.09
2022-12-08 20:10:40.8610,-3.06,-2.04,-2.09,0.02,-0.09,0.08
2022-12-08 20:10:40.8710,-3.06,-2.42,-1.52,-0.05,-0.09,0.05
2022-12-08 20:10:40.8810,-2.77,-2.22,-0.85,-0.13,-0.1,0.02
2022-12-08 20:10:40.8910,-2.36,-1.56,-0.49,-0.16,-0.13,0.01
2022-12-08 20:10:40.9010,-2.03,-1.1,-0.4,-0.13,-0.13,0.02
2022-12-08 20:10:40.9110,-1.73,-0.7,-0.66,-0.09,-0.11,0.05
2022-12-08 20:10:40.9210,-1.31,-0.2,-1.12,-0.1,-0.12,0.08
2022-12-08 20:10:40.9310,-0.91,0.31,-1.45,-0.14,-0.15,0.11
2022-12-08 20:10:40.9410,-0.57,0.7,-1.75,-0.18,-0.21,0.14
2022-12-08 20:10:40.9500,-0.28,0.99,-1.82,-0.19,-0.28,0.16
2022-12-08 20:10:40.9610,0.0,1.25,-1.74,-0.2,-0.29,0.18
2022-12-08 20:10:40.9710,0.24,1.59,-1.75,-0.2,-0.29,0.18
2022-12-08 20:10:40.9810,0.43,1.79,-1.54,-0.2,-0.25,0.17
2022-12-08 20:10:40.9910,0.53,2.05,-1.47,-0.22,-0.18,0.16
2022-12-08 20:10:41.0010,0.6,2.32,-1.62,-0.26,-0.12,0.15
2022-12-08 20:10:41.0110,0.6,2.32,-1.62,-0.26,-0.09,0.16
2022-12-08 20:10:41.0210,0.51,2.43,-1.64,-0.24,-0.07,0.17
2022-12-08 20:10:41.0310,0.38,2.44,-1.61,-0.21,-0.06,0.18
2022-12-08 20:10:41.0410,0.27,2.45,-1.56,-0.23,-0.03,0.16
2022-12-08 20:10:41.0510,0.16,2.31,-1.7,-0.26,-0.04,0.15
2022-12-08 20:10:41.0610,0.02,2.26,-1.41,-0.27,-0.03,0.14
2022-12-08 20:10:41.0710,0.02,2.26,-1.41,-0.26,-0.02,0.1
2022-12-08 20:10:41.0810,0.04,2.2,-1.3,-0.25,-0.0,0.06
2022-12-08 20:10:41.0910,0.07,2.22,-1.1,-0.22,0.02,0.04
2022-12-08 20:10:41.1010,0.18,2.23,-0.93,-0.19,0.04,0.03
2022-12-08 20:10:41.1100,0.23,2.3204692858457565,-0.47,-0.17,0.04,0.02
2022-12-08 20:10:41.1200,0.3,2.32,-0.47,-0.16,0.03,0.02
2022-12-08 20:10:41.1300,0.41,2.33,-0.38,-0.15,0.02,-0.0
2022-12-08 20:10:41.1400,0.54,2.28,-0.18,-0.11,0.01,-0.02
2022-12-08 20:10:41.1500,0.59,2.18,0.11,-0.04,-0.02,-0.03
2022-12-08 20:10:41.1600,0.52,1.95,0.38,0.07,-0.05,-0.03
2022-12-08 20:10:41.1700,0.25,1.23,0.89,0.13,-0.07,-0.01
2022-12-08 20:10:41.1800,0.25,1.23,0.89,0.17,-0.12,-0.02
2022-12-08 20:10:41.1900,0.05,0.17368452429771425,1.82,0.17,-0.17,-0.01
2022-12-08 20:10:41.2000,-0.04,-0.44,2.07,0.16,-0.19,-0.05
2022-12-08 20:10:41.2100,-0.04,-0.44,2.07,0.16,-0.19,-0.1
2022-12-08 20:10:41.2200,0.11,-0.61,2.29,0.17,-0.1,-0.15
2022-12-08 20:10:41.2300,0.31,-0.58,2.19,0.18,0.05,-0.21
2022-12-08 20:10:41.2400,0.56,-0.43,1.82,0.18,0.19,-0.27
2022-12-08 20:10:41.2500,0.64,-0.25,1.49,0.2,0.25,-0.31
2022-12-08 20:10:41.2600,0.55,-0.26,1.21,0.29,0.26,-0.29
2022-12-08 20:10:41.2690,0.23,-0.6,1.02,0.49,0.17,-0.13
2022-12-08 20:10:41.2790,-0.59,-1.51,1.34,0.76,-0.05,0.07
2022-12-08 20:10:41.2890,-1.69,-2.74,2.22,0.92,-0.18,0.17
2022-12-08 20:10:41.2990,-2.05,-3.88,2.65,0.92,-0.2,0.17
2022-12-08 20:10:41.3090,-1.67,-5.02,3.03,0.72,0.05,0.19
2022-12-08 20:10:41.3190,-1.51,-5.01,2.84,0.3,0.28,0.05
2022-12-08 20:10:41.3290,-0.99,-4.52,2.41,-0.11,0.33,-0.23
2022-12-08 20:10:41.3390,-0.45,-4.04,2.78,-0.22,0.45,-0.41
2022-12-08 20:10:41.3490,-0.02,-2.82,2.02,-0.09,0.61,-0.46
2022-12-08 20:10:41.3590,0.45,-2.07,0.88,0.09,0.74,-0.4
2022-12-08 20:10:41.3690,0.62,-1.43,0.06,0.21,0.77,-0.32
2022-12-08 20:10:41.3790,0.62,-1.22,-0.64,0.24,0.74,-0.23
2022-12-08 20:10:41.3890,0.56,-1.23,-1.47,0.17,0.63,-0.15
2022-12-08 20:10:41.3990,0.53,-1.31,-1.93,0.08,0.49,-0.09
2022-12-08 20:10:41.4090,0.44,-1.66,-1.85,0.02,0.38,-0.08
2022-12-08 20:10:41.4190,0.38,-1.94,-1.49,-0.02,0.28,-0.12
2022-12-08 20:10:41.4290,0.37,-1.96,-0.76,-0.06,0.22,-0.16
2022-12-08 20:10:41.4390,0.36,-1.8,-0.11,-0.08,0.24,-0.18
2022-12-08 20:10:41.4490,0.38,-1.43,0.04,-0.06,0.3,-0.2
2022-12-08 20:10:41.4580,0.4,-1.04,-0.16,-0.06,0.34,-0.2
2022-12-08 20:10:41.4690,0.78,0.13,-0.87,-0.07,0.32,-0.19
2022-12-08 20:10:41.4790,0.88,0.69,-1.31,-0.08,0.26,-0.19
2022-12-08 20:10:41.4880,0.88,0.69,-1.31,-0.07,0.18,-0.18
2022-12-08 20:10:41.4980,0.9,1.18,-1.5,-0.04,0.09,-0.17
2022-12-08 20:10:41.5080,0.82,1.61,-1.57,-0.02,0.03,-0.16
2022-12-08 20:10:41.5180,0.67,1.9,-1.69,0.01,-0.0,-0.15
2022-12-08 20:10:41.5280,0.5,2.18,-1.67,-0.01,-0.03,-0.13
2022-12-08 20:10:41.5380,0.2,2.42,-1.84,-0.05,-0.05,-0.1
2022-12-08 20:10:41.5480,0.2,2.42,-1.84,-0.07,-0.06,-0.06
2022-12-08 20:10:41.5580,0.05,2.46,-1.77,-0.08,-0.05,-0.0
2022-12-08 20:10:41.5680,-0.09,2.42,-1.84,-0.09,-0.05,0.04
2022-12-08 20:10:41.5780,-0.27,2.33,-1.82,-0.11,-0.07,0.07
2022-12-08 20:10:41.5880,-0.4,2.29,-1.65,-0.15,-0.07,0.08
2022-12-08 20:10:41.5980,-0.38,2.16,-1.63,-0.22,-0.06,0.09
2022-12-08 20:10:41.6080,-0.33,2.04,-1.65,-0.29,-0.05,0.11
2022-12-08 20:10:41.6180,-0.28,1.99,-1.56,-0.33,-0.05,0.13
2022-12-08 20:10:41.6280,-0.25,1.85,-1.36,-0.32,-0.07,0.14
2022-12-08 20:10:41.6380,-0.21,1.72,-1.1,-0.29,-0.12,0.15
2022-12-08 20:10:41.6480,-0.09,1.61,-0.89,-0.27,-0.19,0.16
2022-12-08 20:10:41.6580,0.11,1.57,-0.64,-0.25,-0.26,0.18
2022-12-08 20:10:41.6670,0.39,1.64,-0.29,-0.24,-0.28,0.18
2022-12-08 20:10:41.6780,0.72,1.73,-0.18,-0.22,-0.28,0.19
2022-12-08 20:10:41.6880,1.02,1.73,0.08,-0.16,-0.26,0.19
2022-12-08 20:10:41.6970,1.11,1.7,0.49,-0.1,-0.25,0.22
2022-12-08 20:10:41.7070,1.05,1.56,0.81,-0.05,-0.24,0.22
2022-12-08 20:10:41.7170,1.01,1.2,0.98,-0.02,-0.23,0.23
2022-12-08 20:10:41.7270,0.93,0.41,1.46,-0.0,-0.25,0.22
2022-12-08 20:10:41.7370,0.78,0.41,1.46,0.02,-0.27,0.2
2022-12-08 20:10:41.7470,0.6,0.0,1.67,0.03,-0.31,0.17
2022-12-08 20:10:41.7570,0.45,-0.44,1.85,0.0,-0.3,0.14
2022-12-08 20:10:41.7670,0.42,-0.61,1.88,-0.06,-0.26,0.1
2022-12-08 20:10:41.7770,0.54,-0.64,1.86,-0.11,-0.16,0.07
2022-12-08 20:10:41.7870,0.83,-0.54,2.12,-0.1,-0.04,0.05
2022-12-08 20:10:41.7970,1.11,-0.42,2.37,-0.04,0.07,0.04
2022-12-08 20:10:41.8070,1.32,-0.39,2.76,0.03,0.16,0.07
2022-12-08 20:10:41.8170,1.47,-0.43,3.09,0.15,0.16,0.16
2022-12-08 20:10:41.8270,1.35,-0.65,3.69,0.32,-0.0,0.24
2022-12-08 20:10:41.8370,1.05,-1.65,4.56,0.41,-0.21,0.27
2022-12-08 20:10:41.8470,0.73,-2.32,4.63,0.4,-0.36,0.2
2022-12-08 20:10:41.8570,0.36,-3.1,4.23,0.42,-0.43,0.11
2022-12-08 20:10:41.8670,-0.13,-3.82,3.72,0.5,-0.43,0.01
2022-12-08 20:10:41.8770,-0.69,-3.98,3.18,0.55,-0.27,-0.12
2022-12-08 20:10:41.8870,-1.15,-3.48,1.88,0.48,-0.01,-0.22
2022-12-08 20:10:41.8960,-1.41,-2.82,0.26,0.38,0.21,-0.27
2022-12-08 20:10:41.9060,-1.52,-2.47,-0.98,0.3,0.35,-0.28
2022-12-08 20:10:41.9160,-1.44,-2.13,-1.95,0.31,0.33,-0.25
2022-12-08 20:10:41.9260,-1.5,-1.89,-2.28,0.35,0.25,-0.2
2022-12-08 20:10:41.9360,-1.44,-1.95,-2.57,0.36,0.14,-0.14
2022-12-08 20:10:41.9460,-1.47,-1.87,-2.63,0.3,0.01,-0.08
2022-12-08 20:10:41.9560,-1.38,-2.03,-2.31,0.19,-0.09,-0.07
2022-12-08 20:10:41.9660,-1.38,-2.16,-1.98,0.06,-0.13,-0.06
2022-12-08 20:10:41.9760,-1.36,-2.18,-1.53,-0.03,-0.14,-0.07
2022-12-08 20:10:41.9860,-1.22,-1.97,-0.97,-0.09,-0.14,-0.08
2022-12-08 20:10:41.9960,-1.14,-1.75,-0.35,-0.13,-0.07,-0.1
2022-12-08 20:10:42.0060,-0.86,-1.42,-0.31,-0.13,0.04,-0.12
2022-12-08 20:10:42.0160,-0.16,-0.24,-0.61,-0.13,0.14,-0.15
2022-12-08 20:10:42.0260,-0.16,-0.24,-0.61,-0.15,0.23,-0.17
2022-12-08 20:10:42.0360,0.18,0.42,-1.1,-0.18,0.28,-0.19
2022-12-08 20:10:42.0460,0.38,1.01,-1.6,-0.22,0.29,-0.19
2022-12-08 20:10:42.0560,0.43,1.48,-2.1,-0.21,0.23,-0.16
2022-12-08 20:10:42.0660,0.37,1.93,-2.33,-0.17,0.16,-0.13
2022-12-08 20:10:42.0760,0.27,2.24,-2.54,-0.15,0.08,-0.08
2022-12-08 20:10:42.0860,0.14,2.44,-2.81,-0.12,-0.0,-0.05
2022-12-08 20:10:42.0960,0.01,2.58,-2.83,-0.1,-0.02,-0.0
2022-12-08 20:10:42.1050,-0.09,2.8,-2.94,-0.11,-0.02,0.03
2022-12-08 20:10:42.1150,-0.22,2.78,-2.99,-0.12,-0.02,0.07
2022-12-08 20:10:42.1250,-0.4,2.7,-2.83,-0.11,-0.05,0.1
2022-12-08 20:10:42.1350,-0.53,2.53,-2.49,-0.09,-0.07,0.11
2022-12-08 20:10:42.1450,-0.6,2.27,-2.18,-0.12,-0.09,0.08
2022-12-08 20:10:42.1550,-0.57,2.03,-1.97,-0.17,-0.12,0.08
2022-12-08 20:10:42.1650,-0.51,1.97,-1.47,-0.19,-0.15,0.06
2022-12-08 20:10:42.1750,-0.41,1.79,-0.94,-0.18,-0.15,0.05
2022-12-08 20:10:42.1850,-0.32,1.73,-0.65,-0.16,-0.13,0.04
2022-12-08 20:10:42.1950,-0.18,1.71,-0.38,-0.16,-0.12,0.04
2022-12-08 20:10:42.2050,0.02,1.75,-0.1,-0.15,-0.08,0.02
2022-12-08 20:10:42.2150,0.2,1.9273750108480454,0.03,-0.13,-0.03,-0.0
2022-12-08 20:10:42.2250,0.33,1.92,0.03,-0.14,-0.02,-0.02
2022-12-08 20:10:42.2350,0.44,1.94,0.17,-0.14,-0.01,-0.04
2022-12-08 20:10:42.2450,0.48,1.89,0.2,-0.11,-0.02,-0.04
2022-12-08 20:10:42.2550,0.34,1.72,0.19,-0.06,-0.07,-0.02
2022-12-08 20:10:42.2640,0.13,1.52,0.39,-0.01,-0.12,0.0
2022-12-08 20:10:42.2740,-0.06,1.17,0.54,0.04,-0.18,0.02
2022-12-08 20:10:42.2850,-0.22,0.75,0.82,0.09,-0.24,0.03
2022-12-08 20:10:42.2940,-0.39,0.25,1.26,0.15,-0.26,0.03
2022-12-08 20:10:42.3040,-0.53,-0.25,1.73,0.19,-0.25,0.01
2022-12-08 20:10:42.3140,-0.54,-0.79,2.06,0.2,-0.19,-0.03
2022-12-08 20:10:42.3240,-0.48,-1.12,2.41,0.2,-0.07,-0.09
2022-12-08 20:10:42.3340,-0.39,-1.2,2.58,0.19,0.05,-0.16
2022-12-08 20:10:42.3440,-0.29,-1.13,2.5,0.18,0.19,-0.22
2022-12-08 20:10:42.3540,-0.18,-0.82,2.23,0.19,0.29,-0.29
2022-12-08 20:10:42.3640,0.04,-0.59,1.86,0.21,0.35,-0.27
2022-12-08 20:10:42.3740,0.08,-0.27,1.38,0.32,0.3,-0.26
2022-12-08 20:10:42.3840,-0.02,-0.87,1.55,0.52,0.25,-0.12
2022-12-08 20:10:42.3940,-0.39,-1.38,1.86,0.7,0.18,0.01
2022-12-08 20:10:42.4040,-0.81,-1.74,2.29,0.7,0.17,0.02
2022-12-08 20:10:42.4140,-0.67,-2.4,2.49,0.56,0.23,0.02
2022-12-08 20:10:42.4240,-0.37,-2.62,2.61,0.39,0.34,-0.01
2022-12-08 20:10:42.4340,-0.44,-2.88,2.63,0.23,0.44,-0.13
2022-12-08 20:10:42.4440,-0.55,-2.82,2.35,0.16,0.5,-0.29
2022-12-08 20:10:42.4540,-0.54,-2.26,2.02,0.22,0.54,-0.32
2022-12-08 20:10:42.4640,-0.63,-1.72,1.57,0.31,0.62,-0.29
2022-12-08 20:10:42.4740,-0.67,-1.5,0.66,0.35,0.69,-0.27
2022-12-08 20:10:42.4830,-0.47,-1.52,-0.11,0.32,0.71,-0.24
2022-12-08 20:10:42.4930,-0.23,-1.47,-0.55,0.26,0.66,-0.19
2022-12-08 20:10:42.5030,-0.1,-1.74,-0.54,0.21,0.57,-0.13
2022-12-08 20:10:42.5130,-0.02,-2.26,-0.41,0.16,0.44,-0.1
2022-12-08 20:10:42.5230,0.08,-2.45,-0.05,0.11,0.32,-0.08
2022-12-08 20:10:42.5330,0.27,-2.25,0.28,0.11,0.22,-0.09
2022-12-08 20:10:42.5430,0.55,-2.01,0.42,0.13,0.21,-0.11
2022-12-08 20:10:42.5530,0.83,-1.79,0.4,0.2,0.21,-0.13
2022-12-08 20:10:42.5630,1.28,-0.7,-0.34,0.24,0.27,-0.15
2022-12-08 20:10:42.5730,1.28,-0.7,-0.34,0.24,0.29,-0.19
2022-12-08 20:10:42.5830,1.47,-0.29,-0.68,0.2,0.29,-0.21
2022-12-08 20:10:42.5930,1.53,0.37,-1.06,0.18,0.25,-0.23
2022-12-08 20:10:42.6030,1.38,0.76,-1.37,0.19,0.15,-0.21
2022-12-08 20:10:42.6130,1.1,1.12,-1.71,0.19,0.03,-0.19
2022-12-08 20:10:42.6230,0.87,1.36,-1.97,0.2,-0.1,-0.16
2022-12-08 20:10:42.6330,0.69,1.63,-2.07,0.2,-0.19,-0.11
2022-12-08 20:10:42.6430,0.5,2.0,-2.29,0.18,-0.25,-0.08
2022-12-08 20:10:42.6530,0.38,2.02,-2.36,0.15,-0.26,-0.03
2022-12-08 20:10:42.6630,0.06,2.19,-2.37,0.13,-0.23,-0.0
2022-12-08 20:10:42.6730,0.06,2.19,-2.37,0.1,-0.19,0.03
2022-12-08 20:10:42.6830,-0.11,2.17,-2.34,0.05,-0.16,0.06
2022-12-08 20:10:42.6920,-0.25,2.08,-2.35,-0.01,-0.14,0.09
2022-12-08 20:10:42.7020,-0.39,1.96,-2.4,-0.06,-0.14,0.1
2022-12-08 20:10:42.7120,-0.5,1.89,-2.38,-0.11,-0.14,0.11
2022-12-08 20:10:42.7220,-0.57,1.76,-2.37,-0.16,-0.15,0.12
2022-12-08 20:10:42.7320,-0.58,1.66,-2.21,-0.2,-0.16,0.12
2022-12-08 20:10:42.7420,-0.59,1.76,-1.93,-0.25,-0.15,0.12
2022-12-08 20:10:42.7520,-0.45,1.79,-1.92,-0.28,-0.15,0.13
2022-12-08 20:10:42.7620,-0.2,1.75,-1.88,-0.29,-0.18,0.13
2022-12-08 20:10:42.7720,0.07,1.92,-1.45,-0.28,-0.2,0.13
2022-12-08 20:10:42.7820,0.07,1.92,-1.45,-0.26,-0.2,0.14
2022-12-08 20:10:42.7920,0.23,1.83,-1.44,-0.26,-0.2,0.15
2022-12-08 20:10:42.8020,0.31,1.72,-1.28,-0.26,-0.22,0.17
2022-12-08 20:10:42.8120,0.2,1.49,-1.1,-0.25,-0.26,0.21
2022-12-08 20:10:42.8220,-0.03,1.16,-0.7,-0.21,-0.34,0.27
2022-12-08 20:10:42.8320,-0.22,0.8,-0.23,-0.16,-0.4,0.33
2022-12-08 20:10:42.8420,-0.24,0.32,0.19,-0.12,-0.45,0.37
2022-12-08 20:10:42.8520,-0.14,-0.19,0.63,-0.15,-0.48,0.38
2022-12-08 20:10:42.8620,-0.01,-0.59,1.02,-0.2,-0.46,0.37
2022-12-08 20:10:42.8710,0.21,-0.93,1.43,-0.27,-0.4,0.33
2022-12-08 20:10:42.8810,0.47,-1.13,1.88,-0.31,-0.31,0.29
2022-12-08 20:10:42.8920,0.72,-1.2,2.27,-0.32,-0.18,0.22
2022-12-08 20:10:42.9010,1.2717240884900094,-0.92,2.75,-0.32,-0.07,0.17
2022-12-08 20:10:42.9110,1.27,-0.92,2.75,-0.3,0.07,0.16
2022-12-08 20:10:42.9210,1.52,-0.56,2.95,-0.3,0.22,0.16
2022-12-08 20:10:42.9310,1.76,-0.07,2.98,-0.17,0.22,0.16
2022-12-08 20:10:42.9410,1.9,-0.47,3.89,0.15,0.13,0.27
2022-12-08 20:10:42.9510,1.66,-0.92,4.58,0.44,-0.0,0.38
2022-12-08 20:10:42.9610,0.68,-2.52,3.81,0.44,-0.19,0.34
2022-12-08 20:10:42.9710,0.68,-2.52,3.81,0.37,-0.54,0.25
2022-12-08 20:10:42.9810,-0.14,-3.34,3.86,0.44,-0.74,0.18
2022-12-08 20:10:42.9910,-0.9,-3.41,2.72,0.53,-0.62,0.05
2022-12-08 20:10:43.0010,-1.43,-2.74,-0.11,0.5,-0.41,-0.06
2022-12-08 20:10:43.0110,-1.43,-2.74,-0.11,0.41,-0.22,-0.11
2022-12-08 20:10:43.0210,-1.65,-2.14,-0.6,0.38,-0.06,-0.12
2022-12-08 20:10:43.0310,-1.83,-1.99,-1.12,0.36,0.06,-0.08
2022-12-08 20:10:43.0410,-1.72,-1.95,-1.65,0.29,0.06,-0.02
2022-12-08 20:10:43.0510,-1.46,-1.94,-1.78,0.21,-0.03,0.01
2022-12-08 20:10:43.0610,-1.22,-2.01,-1.69,0.13,-0.08,0.02
2022-12-08 20:10:43.0710,-1.01,-2.08,-1.75,0.03,-0.13,0.02
2022-12-08 20:10:43.0800,-0.81,-2.06,-1.52,-0.07,-0.17,0.02
2022-12-08 20:10:43.0900,-0.59,-2.05,-1.04,-0.15,-0.13,-0.01
2022-12-08 20:10:43.1010,-0.42,-1.8,-0.71,-0.21,-0.05,-0.07
2022-12-08 20:10:43.1100,-0.31,-1.54,-0.51,-0.21,0.07,-0.12
2022-12-08 20:10:43.1200,-0.16,-1.21,-0.33,-0.2,0.18,-0.15
2022-12-08 20:10:43.1300,0.0,-0.2089186763763428,-0.8,-0.19,0.28,-0.17
2022-12-08 20:10:43.1400,0.16,-0.21,-0.8,-0.2,0.35,-0.18
2022-12-08 20:10:43.1500,0.29,0.34,-1.23,-0.21,0.38,-0.18
2022-12-08 20:10:43.1600,0.4,0.85,-1.67,-0.22,0.37,-0.18
2022-12-08 20:10:43.1700,0.41,1.31,-2.07,-0.23,0.31,-0.18
2022-12-08 20:10:43.1800,0.33,1.62,-2.48,-0.24,0.22,-0.14
2022-12-08 20:10:43.1900,0.29,1.96,-2.54,-0.22,0.11,-0.08
2022-12-08 20:10:43.2000,0.17,2.22,-2.51,-0.2,0.04,-0.03
2022-12-08 20:10:43.2100,0.01,2.32,-2.52,-0.2,-0.01,0.0
2022-12-08 20:10:43.2200,-0.12,2.4,-2.42,-0.2,-0.05,0.04
2022-12-08 20:10:43.2300,-0.18,2.42,-2.15,-0.18,-0.09,0.08
2022-12-08 20:10:43.2400,-0.27,2.39,-1.83,-0.12,-0.12,0.09
2022-12-08 20:10:43.2500,-0.32,2.22,-1.56,-0.11,-0.09,0.11
2022-12-08 20:10:43.2600,-0.26,2.28,-1.58,-0.15,-0.07,0.11
2022-12-08 20:10:43.2700,-0.18,2.2,-1.36,-0.2,-0.04,0.09
2022-12-08 20:10:43.2800,-0.01,2.07,-1.05,-0.25,-0.02,0.05
2022-12-08 20:10:43.2900,-0.01,2.07,-1.05,-0.28,-0.05,0.03
2022-12-08 20:10:43.2990,0.05,2.0,-0.62,-0.26,-0.08,0.02
2022-12-08 20:10:43.3090,0.1,2.1,-0.36,-0.22,-0.07,0.02
2022-12-08 20:10:43.3190,0.26,2.17,-0.39,-0.2,-0.04,0.02
2022-12-08 20:10:43.3300,0.43,2.26,-0.37,-0.21,-0.03,0.0
2022-12-08 20:10:43.3390,0.53,2.35,-0.26,-0.2,-0.02,-0.04
2022-12-08 20:10:43.3490,0.55,2.28,-0.08,-0.17,0.0,-0.09
2022-12-08 20:10:43.3590,0.58,2.2,0.09,-0.13,0.02,-0.14
2022-12-08 20:10:43.3690,0.56,1.93,0.36,-0.05,0.01,-0.19
2022-12-08 20:10:43.3790,0.4,1.39,0.87,0.04,0.01,-0.21
2022-12-08 20:10:43.3890,0.15,1.13,1.31,0.07,0.01,-0.2
2022-12-08 20:10:43.3990,-0.01,0.6,1.59,0.08,0.03,-0.19
2022-12-08 20:10:43.4090,-0.13,0.08,1.7,0.07,0.07,-0.19
2022-12-08 20:10:43.4190,-0.14,-0.34,1.72,0.06,0.11,-0.17
2022-12-08 20:10:43.4290,-0.09,-0.58,1.82,0.07,0.13,-0.21
2022-12-08 20:10:43.4390,0.02,-0.88,1.97,0.06,0.19,-0.24
2022-12-08 20:10:43.4490,0.11,-0.85,1.76,0.05,0.22,-0.28
2022-12-08 20:10:43.4590,0.14,-0.57,1.71,0.08,0.25,-0.28
2022-12-08 20:10:43.4690,0.17,-0.65,1.55,0.19,0.28,-0.22
2022-12-08 20:10:43.4790,-0.16,-1.2,1.73,0.4,0.22,-0.07
2022-12-08 20:10:43.4890,-1.03,-2.14,2.56,0.57,0.14,0.06
2022-12-08 20:10:43.4980,-1.61,-3.18,3.2,0.55,0.16,0.07
2022-12-08 20:10:43.5090,-1.27,-3.98,3.2,0.35,0.27,0.01
2022-12-08 20:10:43.5180,-0.8,-4.17,3.27,0.09,0.46,-0.09
2022-12-08 20:10:43.5280,-0.37,-3.63,2.52,-0.17,0.62,-0.24
2022-12-08 20:10:43.5390,-0.37,-3.63,2.52,-0.35,0.64,-0.43
2022-12-08 20:10:43.5480,-0.07,-3.05,1.41,-0.38,0.6,-0.52
2022-12-08 20:10:43.5580,0.19,-1.77,1.41,-0.29,0.6,-0.49
2022-12-08 20:10:43.5680,0.25,-0.05017963528633118,-0.41,-0.11,0.55,-0.46
2022-12-08 20:10:43.5780,0.22,-0.06,-1.15,0.06,0.48,-0.39
2022-12-08 20:10:43.5880,-0.09,0.21,-1.83,0.21,0.4,-0.27
2022-12-08 20:10:43.5980,-0.17,-0.06,-2.23,0.26,0.31,-0.13
2022-12-08 20:10:43.6080,-0.24,-0.75,-2.11,0.2,0.2,-0.01
2022-12-08 20:10:43.6180,-0.35,-1.1,-1.43,0.09,0.08,0.07
2022-12-08 20:10:43.6280,-0.27,-1.35,-0.64,-0.02,-0.08,0.09
2022-12-08 20:10:43.6380,-0.27,-1.493230358362198,0.07,-0.09,-0.2,0.08
2022-12-08 20:10:43.6480,0.30225317515432837,-0.97,0.52,-0.07,-0.25,0.1
2022-12-08 20:10:43.6580,0.4908635213971138,-1.01,0.77,-0.01,-0.23,0.07
2022-12-08 20:10:43.6680,0.49,-1.01,0.77,0.07,-0.13,0.03
2022-12-08 20:10:43.6780,0.92,-0.32,0.43,0.13,-0.04,0.01
2022-12-08 20:10:43.6880,1.1,-0.04,0.12,0.16,0.03,-0.02
2022-12-08 20:10:43.6970,1.2484249806404115,0.38,-0.31,0.16,0.09,-0.04
2022-12-08 20:10:43.7070,1.24,0.38,-0.31,0.14,0.09,-0.07
2022-12-08 20:10:43.7170,1.24,0.99,-1.1,0.11,0.06,-0.13
2022-12-08 20:10:43.7270,1.16,1.2,-1.44,0.07,0.01,-0.16
2022-12-08 20:10:43.7380,1.16,1.2,-1.44,0.05,-0.03,-0.18
2022-12-08 20:10:43.7470,0.9400422424077988,1.63,-1.86,0.06,-0.02,-0.19
2022-12-08 20:10:43.7590,0.75,1.83,-2.04,0.07,0.04,-0.17
2022-12-08 20:10:43.7670,0.75,1.83,-2.04,0.07,0.1,-0.15
2022-12-08 20:10:43.7770,0.53,1.77,-2.18,0.06,0.13,-0.1
2022-12-08 20:10:43.7870,0.21,1.86,-2.17,0.05,0.12,-0.04
2022-12-08 20:10:43.7970,-0.06,1.77,-2.14,0.04,0.09,0.01
2022-12-08 20:10:43.8070,-0.24,1.54,-2.14,0.01,0.04,0.03
2022-12-08 20:10:43.8170,-0.3,1.3,-2.13,-0.04,-0.0,0.06
2022-12-08 20:10:43.8270,-0.34,1.13,-1.99,-0.12,-0.04,0.07
2022-12-08 20:10:43.8370,-0.32,1.1,-1.83,-0.21,-0.06,0.05
2022-12-08 20:10:43.8470,-0.28,0.91,-1.63,-0.26,-0.03,0.03
2022-12-08 20:10:43.8570,-0.18,0.94,-1.42,-0.29,0.0,0.01
2022-12-08 20:10:43.8670,-0.13,1.03,-1.27,-0.31,0.04,-0.02
2022-12-08 20:10:43.8760,-0.1,1.18,-1.09,-0.32,0.07,-0.03
2022-12-08 20:10:43.8860,-0.01,1.28,-1.0313541162014008,-0.33,0.08,-0.03
2022-12-08 20:10:43.8960,0.13,1.33,-1.04,-0.33,0.08,-0.03
2022-12-08 20:10:43.9060,0.44,1.28,-1.05,-0.33,0.07,-0.03
2022-12-08 20:10:43.9160,0.52,1.26,-0.85,-0.35,0.04,-0.03
2022-12-08 20:10:43.9260,0.52,1.26,-0.85,-0.37,0.01,-0.01
2022-12-08 20:10:43.9360,0.49,1.26,-0.55,-0.36,-0.02,0.01
2022-12-08 20:10:43.9460,0.5,1.15,-0.26,-0.35,-0.05,0.02
2022-12-08 20:10:43.9560,0.44,0.94,0.86,-0.33,-0.13,0.04
2022-12-08 20:10:43.9660,0.19,0.81,0.86,-0.3,-0.25,0.08
2022-12-08 20:10:43.9760,-0.06,0.61,1.44,-0.31,-0.35,0.16
2022-12-08 20:10:43.9860,-0.11,0.58,1.76,-0.34,-0.39,0.19
2022-12-08 20:10:43.9960,0.14,0.32,1.93,-0.36,-0.35,0.23
2022-12-08 20:10:44.0060,0.49,0.24,1.99,-0.4,-0.25,0.24
2022-12-08 20:10:44.0160,0.92,0.06,2.31,-0.45,-0.16,0.23
2022-12-08 20:10:44.0260,1.43,-0.13,2.99,-0.45,-0.12,0.21
2022-12-08 20:10:44.0360,1.99,-0.51,4.14,-0.33,-0.18,0.22
2022-12-08 20:10:44.0460,2.37,-1.23,6.04,-0.08,-0.33,0.27
2022-12-08 20:10:44.0560,2.21,-1.76,8.02,0.25,-0.44,0.25
2022-12-08 20:10:44.0660,1.67,-2.42,8.66,0.59,-0.45,0.12
2022-12-08 20:10:44.0760,0.72,-3.23,6.31,0.79,-0.41,0.0
2022-12-08 20:10:44.0860,-0.28,-3.46,3.29,0.78,-0.38,-0.1
2022-12-08 20:10:44.0960,-1.24,-3.48,1.78,0.7,-0.32,-0.21
2022-12-08 20:10:44.1060,-1.85,-3.12,0.5,0.62,-0.21,-0.25
2022-12-08 20:10:44.1160,-2.13,-2.36,-0.94,0.56,-0.12,-0.24
2022-12-08 20:10:44.1250,-2.32,-1.99,-2.06,0.46,-0.04,-0.18
2022-12-08 20:10:44.1360,-2.44,-1.74,-3.01,0.39,-0.02,-0.08
2022-12-08 20:10:44.1450,-2.55,-1.61,-3.24,0.34,-0.03,0.02
2022-12-08 20:10:44.1550,-2.44,-1.85,-2.82,0.29,-0.05,0.1
2022-12-08 20:10:44.1660,-2.44,-1.85,-2.82,0.23,-0.02,0.16
2022-12-08 20:10:44.1750,-2.32,-2.07,-1.66,0.17,-0.07,0.23
2022-12-08 20:10:44.1850,-2.19,-2.35,-0.97,0.09,-0.15,0.22
2022-12-08 20:10:44.1950,-2.19,-2.35,-0.97,0.01,-0.21,0.2
2022-12-08 20:10:44.2050,-1.96,-2.35,-0.68,-0.04,-0.27,0.19
2022-12-08 20:10:44.2150,-1.79,-1.75,-0.36,-0.07,-0.27,0.17
2022-12-08 20:10:44.2250,-1.55,-1.41,-0.18,-0.07,-0.19,0.15
2022-12-08 20:10:44.2350,-1.03,-0.53,-0.73,-0.06,-0.12,0.14
2022-12-08 20:10:44.2450,-1.03,-0.53,-0.73,-0.05,-0.08,0.12
2022-12-08 20:10:44.2550,-0.51,0.47,-1.52,-0.08,-0.07,0.12
2022-12-08 20:10:44.2650,-0.26,0.83,-2.02,-0.16,-0.09,0.11
2022-12-08 20:10:44.2800,-0.09,1.24,-2.26,-0.22,-0.14,0.12
2022-12-08 20:10:44.2840,0.05,1.71,-2.28,-0.24,-0.2,0.14
2022-12-08 20:10:44.2940,0.05,1.71,-2.28,-0.23,-0.23,0.16
2022-12-08 20:10:44.3040,0.21,2.01,-2.31,-0.22,-0.25,0.18
2022-12-08 20:10:44.3140,0.36,2.27,-2.32,-0.22,-0.26,0.19
2022-12-08 20:10:44.3240,0.43,2.45,-2.23,-0.2,-0.24,0.22
2022-12-08 20:10:44.3340,0.35,2.59,-2.12,-0.18,-0.22,0.23
2022-12-08 20:10:44.3440,0.17,2.55,-2.0,-0.16,-0.21,0.23
2022-12-08 20:10:44.3540,-0.19,2.48,-1.52,-0.15,-0.23,0.25
2022-12-08 20:10:44.3640,-0.19,2.48,-1.52,-0.15,-0.24,0.26
2022-12-08 20:10:44.3740,-0.26,2.39,-1.4,-0.18,-0.26,0.26
2022-12-08 20:10:44.3840,-0.24,2.23,-1.31,-0.21,-0.28,0.26
2022-12-08 20:10:44.3940,-0.07,2.22,-0.93,-0.23,-0.3,0.24
2022-12-08 20:10:44.4040,0.44,2.22,-0.76,-0.23,-0.3,0.21
2022-12-08 20:10:44.4190,0.63,2.13,-0.67,-0.23,-0.26,0.13
2022-12-08 20:10:44.4240,0.63,2.13,-0.67,-0.2,-0.21,0.06
2022-12-08 20:10:44.4390,0.7,2.3,-0.07,-0.14,-0.14,0.02
2022-12-08 20:10:44.4490,0.65,2.19,0.03,-0.07,-0.05,-0.0
2022-12-08 20:10:44.4480,0.56,2.09,0.17,-0.02,0.02,-0.04
2022-12-08 20:10:44.4690,0.45,1.9,0.41,0.04,0.08,-0.07
2022-12-08 20:10:44.4780,0.32,1.7,0.57,0.1,0.15,-0.07
2022-12-08 20:10:44.4880,0.15,1.26,0.71,0.15,0.21,-0.06
2022-12-08 20:10:44.4980,-0.1,0.69,0.88,0.19,0.25,-0.05
2022-12-08 20:10:44.4950,-0.1,0.69,0.88,0.21,0.26,-0.05
2022-12-08 20:10:44.5130,-0.46,-0.64,1.56,0.2,0.28,-0.05
2022-12-08 20:10:44.5280,-0.57,-0.78,1.76,0.14,0.27,-0.07
2022-12-08 20:10:44.5330,-0.57,-0.78,1.76,0.06,0.17,-0.12
2022-12-08 20:10:44.5430,-0.67,-0.97,2.37,0.01,0.15,-0.19
2022-12-08 20:10:44.5530,-0.4,-0.72,2.1,0.01,0.21,-0.22
2022-12-08 20:10:44.5630,-0.22,-0.46,2.04,0.04,0.29,-0.23
2022-12-08 20:10:44.5730,-0.15,-0.34,1.91,0.09,0.36,-0.23
2022-12-08 20:10:44.5830,-0.15,-0.34,1.91,0.18,0.38,-0.2
2022-12-08 20:10:44.5930,-0.64,-1.27,2.28,0.35,0.38,-0.08
2022-12-08 20:10:44.6030,-1.22,-2.03,2.96,0.57,0.33,0.13
2022-12-08 20:10:44.6130,-1.45,-3.09,3.94,0.67,0.2,0.29
2022-12-08 20:10:44.6230,-1.06,-4.02,4.61,0.58,0.05,0.26
2022-12-08 20:10:44.6330,-0.45,-4.11,4.73,0.38,0.02,0.21
2022-12-08 20:10:44.6420,0.16,-3.64,4.28,0.22,0.04,0.06
2022-12-08 20:10:44.6520,0.47,-3.08,3.18,0.17,0.12,-0.18
2022-12-08 20:10:44.6620,0.37,-2.03,1.44,0.21,0.28,-0.36
2022-12-08 20:10:44.6720,0.37,-1.21,-0.02,0.24,0.39,-0.43
2022-12-08 20:10:44.6820,0.17,-1.21,-0.02,0.26,0.44,-0.43
2022-12-08 20:10:44.6920,-0.07,-0.75,-1.13,0.29,0.48,-0.38
2022-12-08 20:10:44.7020,-0.58,-0.37,-3.18,0.33,0.47,-0.28
2022-12-08 20:10:44.7120,-0.73,-0.39,-3.69,0.35,0.43,-0.15
2022-12-08 20:10:44.7220,-0.73,-0.39,-3.69,0.28,0.34,-0.04
2022-12-08 20:10:44.7320,-0.67,-0.74,-3.72,0.17,0.22,0.04
2022-12-08 20:10:44.7420,-0.67,-1.22,-3.24,0.07,0.02,0.1
2022-12-08 20:10:44.7520,-0.71,-1.49,-2.18,0.0,-0.16,0.13
2022-12-08 20:10:44.7620,-0.59,-1.39,-1.22,-0.03,-0.28,0.13
2022-12-08 20:10:44.7720,-0.34,-1.3,-0.53,-0.02,-0.36,0.12
2022-12-08 20:10:44.7820,0.22,-1.11,0.04,0.02,-0.29,0.11
2022-12-08 20:10:44.7920,0.22,-1.11,0.04,0.06,-0.19,0.1
2022-12-08 20:10:44.8020,0.43,-0.94,-0.05,0.11,-0.11,0.09
2022-12-08 20:10:44.8120,0.87,-0.3,-0.2,0.15,-0.07,0.11
2022-12-08 20:10:44.8220,0.87,-0.3,-0.2,0.17,-0.07,0.08
2022-12-08 20:10:44.8320,1.0,-0.02,-0.57,0.12,-0.05,0.03
2022-12-08 20:10:44.8420,1.22,0.85,-1.39,0.05,-0.09,-0.03
2022-12-08 20:10:44.8520,1.08,1.26,-1.61,0.03,-0.15,-0.04
2022-12-08 20:10:44.8620,0.93,1.4,-1.97,0.04,-0.15,-0.03
2022-12-08 20:10:44.8710,0.93,1.4,-1.97,0.04,-0.16,-0.01
2022-12-08 20:10:44.8810,0.49,1.73,-1.99,0.03,-0.16,0.02
2022-12-08 20:10:44.8910,0.49,1.73,-1.99,0.03,-0.16,0.05
2022-12-08 20:10:44.9010,0.01,1.77,-1.81,0.04,-0.13,0.06
2022-12-08 20:10:44.9120,-0.17,1.82,-1.71,0.03,-0.08,0.08
Time,-0.28,1.7,-1.51,0.01,-0.06,0.1
2022-12-08 20:10:44.9310,-0.43,1.56,-1.4,-0.04,-0.05,0.1
2022-12-08 20:10:44.9410,-0.47,1.44,-1.29,-0.1,-0.07,0.11
2022-12-08 20:10:44.9560,-0.41,1.37,-1.08,-0.14,-0.08,0.1
2022-12-08 20:10:44.9660,-0.36,1.37,-0.87,-0.17,-0.09,0.09
2022-12-08 20:10:44.9720,-0.27,1.48,-0.79,-0.19,-0.06,0.08
2022-12-08 20:10:44.9860,-0.09,1.52,-0.75,-0.21,-0.01,0.08
2022-12-08 20:10:44.9850,0.08,1.62,-0.66,-0.2,0.04,0.07
2022-12-08 20:10:45.0030,0.26,1.69,-0.64,-0.17,0.08,0.06
2022-12-08 20:10:45.0110,0.4,1.77,-0.73,-0.15,0.11,0.07
2022-12-08 20:10:45.0210,0.4,1.77,-0.73,-0.14,0.11,0.07
2022-12-08 20:10:45.0310,0.47,1.8,-0.79,-0.12,0.08,0.07
2022-12-08 20:10:45.0410,0.65,1.67,-0.73,-0.1,0.05,0.08
2022-12-08 20:10:45.0510,0.61,1.43,-0.62,-0.08,0.02,0.1
2022-12-08 20:10:45.0610,0.47,1.11,-0.29,-0.05,-0.03,0.11
2022-12-08 20:10:45.0710,0.35,0.73,0.05,-0.03,-0.11,0.13
2022-12-08 20:10:45.0800,0.24,0.33,0.22,-0.01,-0.13,0.14
2022-12-08 20:10:45.0910,0.18,-0.15,0.57,-0.03,-0.15,0.14
2022-12-08 20:10:45.1000,0.17034868776798248,-0.49,1.04,-0.08,-0.17,0.13
2022-12-08 20:10:45.1100,0.27,-0.57,1.36,-0.16,-0.15,0.11
2022-12-08 20:10:45.1200,0.63,-0.48,1.44,-0.26,-0.06,0.09
2022-12-08 20:10:45.1300,1.02,-0.56,1.46,-0.31,0.07,0.07
2022-12-08 20:10:45.1450,1.32,-0.82,1.74,-0.29,0.15,0.08
2022-12-08 20:10:45.1500,1.12,-1.14,2.55,-0.17,0.1,0.2
2022-12-08 20:10:45.1600,0.57,-1.77,3.6,0.03,-0.07,0.34
2022-12-08 20:10:45.1700,0.29,-2.32,4.5,0.16,-0.31,0.39
2022-12-08 20:10:45.1800,0.29,-2.32,4.4793326407670975,0.13,-0.4,0.29
2022-12-08 20:10:45.1900,0.67,-2.98,3.99,0.08,-0.47,0.18
2022-12-08 20:10:45.2000,0.49,-3.02,3.24,0.14,-0.5,0.11
2022-12-08 20:10:45.2100,0.21,-2.82,2.13,0.26,-0.42,-0.02
2022-12-08 20:10:45.2200,0.21,-2.82,2.13,0.32,-0.3,-0.16
2022-12-08 20:10:45.2300,-0.07,-2.2,0.95,0.31,-0.18,-0.22
2022-12-08 20:10:45.2400,-0.34,-1.5402717930078507,-1.03,0.31,-0.05,-0.2
2022-12-08 20:10:45.2500,-0.62,-1.55,-1.03,0.33,0.07,-0.17
2022-12-08 20:10:45.2600,-0.87,-1.46,-1.74,0.36,0.11,-0.1
2022-12-08 20:10:45.2690,-1.26,-1.45,-1.87,0.36,0.09,-0.03
2022-12-08 20:10:45.2800,-1.67,-1.79,-1.74,0.33,0.04,0.03
2022-12-08 20:10:45.2890,-1.99,-2.22,-1.48,0.24,-0.0,0.07
2022-12-08 20:10:45.3000,-2.03,-2.43,-0.67,0.11,-0.04,0.11
2022-12-08 20:10:45.3090,-2.03,-2.43,-0.67,-0.03,-0.11,0.09
2022-12-08 20:10:45.3200,-1.7,-2.11,0.26,-0.14,-0.15,0.04
2022-12-08 20:10:45.3300,-1.7,-2.11,0.26,-0.2,-0.13,-0.0
2022-12-08 20:10:45.3400,-1.13,-1.5,0.31,-0.21,-0.04,-0.07
2022-12-08 20:10:45.3490,-1.13,-1.5,0.31,-0.18,0.06,-0.1
2022-12-08 20:10:45.3590,-0.9,-0.81,0.09,-0.14,0.16,-0.12
2022-12-08 20:10:45.3700,-0.58,-0.21,-0.37,-0.12,0.23,-0.14
2022-12-08 20:10:45.3790,-0.31,0.92,-1.41,-0.12,0.27,-0.15
2022-12-08 20:10:45.3890,-0.09,0.92,-1.41,-0.13,0.27,-0.14
2022-12-08 20:10:45.3990,0.07,1.33,-1.87,-0.14,0.22,-0.12
2022-12-08 20:10:45.4090,0.15,2.0,-2.4,-0.15,0.14,-0.1
2022-12-08 20:10:45.4190,0.15,2.0,-2.4,-0.15,0.06,-0.07
2022-12-08 20:10:45.4290,0.19,2.23,-2.53,-0.17,-0.02,-0.03
2022-12-08 20:10:45.4390,0.27,2.47,-2.48,-0.17,-0.05,-0.0
2022-12-08 20:10:45.4490,0.2,2.62,-2.28,-0.15,-0.05,0.01
2022-12-08 20:10:45.4590,0.2,2.62,-1.9118272644281389,-0.11,-0.02,0.05
2022-12-08 20:10:45.4690,-0.12,2.42,-1.71,-0.1,0.01,0.09
2022-12-08 20:10:45.4790,-0.34,2.3,-1.42,-0.11,0.01,0.12
2022-12-08 20:10:45.4890,-0.34,2.3,-1.42,-0.13,-0.05,0.13
2022-12-08 20:10:45.4980,-0.43,2.24,-1.15,-0.14,-0.11,0.16
2022-12-08 20:10:45.5080,-0.42,2.27,-0.95,-0.15,-0.17,0.18
2022-12-08 20:10:45.5180,-0.26,2.33,-0.87,-0.15,-0.21,0.18
2022-12-08 20:10:45.5280,-0.2,2.44,-0.57,-0.16,-0.21,0.19
2022-12-08 20:10:45.5380,-0.21,2.39,-0.54,-0.15,-0.16,0.19
2022-12-08 20:10:45.5480,-0.26,2.25,-0.36,-0.14,-0.12,0.19
2022-12-08 20:10:45.5580,-0.28,2.1,0.01,-0.12,-0.1,0.14
2022-12-08 20:10:45.5680,-0.28,2.19,0.24,-0.09,-0.08,0.1
2022-12-08 20:10:45.5780,-0.25,2.13,0.26,-0.07,-0.04,0.07
2022-12-08 20:10:45.5880,-0.25,2.13,0.26,-0.04,-0.02,0.06
2022-12-08 20:10:45.5980,-0.25,2.12,0.26,-0.01,-0.03,0.07
2022-12-08 20:10:45.6080,-0.31,2.09,0.29,0.0,-0.09,0.09
2022-12-08 20:10:45.6180,-0.34,1.89,0.3,0.01,-0.15,0.1
2022-12-08 20:10:45.6280,-0.26,0.75,0.75,-0.0,-0.23,0.1
2022-12-08 20:10:45.6380,-0.26,0.75,0.75,0.01,-0.31,0.11
2022-12-08 20:10:45.6480,-0.3,0.29,1.38,0.04,-0.32,0.09
2022-12-08 20:10:45.6580,-0.24,-0.2,1.74,0.04,-0.24,0.03
2022-12-08 20:10:45.6680,0.01,-0.45,1.77,0.0,-0.13,-0.05
2022-12-08 20:10:45.6770,0.38,-0.43,1.83,-0.05,0.01,-0.13
2022-12-08 20:10:45.6880,0.93,-0.22,1.37,-0.06,0.14,-0.23
2022-12-08 20:10:45.6980,0.93,-0.22,1.37,-0.02,0.26,-0.27
2022-12-08 20:10:45.7070,0.55,-0.67,1.05,0.09,0.38,-0.24
2022-12-08 20:10:45.7170,0.55,-0.67,1.05,0.31,0.46,-0.1
2022-12-08 20:10:45.7270,-1.37,-2.92,2.75,0.58,0.44,0.11
2022-12-08 20:10:45.7370,-1.37,-2.92,2.75,0.7,0.34,0.23
2022-12-08 20:10:45.7470,-1.86,-4.26,3.72,0.6,0.29,0.22
2022-12-08 20:10:45.7570,-1.66,-5.08,4.35,0.34,0.3,0.1
2022-12-08 20:10:45.7670,-1.24,-4.97,4.72,0.05,0.31,-0.17
2022-12-08 20:10:45.7770,-0.56,-4.42,4.91,-0.11,0.44,-0.46
2022-12-08 20:10:45.7870,0.23,-3.34,4.09,-0.09,0.61,-0.63
2022-12-08 20:10:45.7970,0.91,-2.04,2.77,0.06,0.68,-0.7
2022-12-08 20:10:45.8070,1.07,-1.16,1.66,0.27,0.72,-0.71
2022-12-08 20:10:45.8170,0.87,-0.61,-0.59,0.47,0.75,-0.61
2022-12-08 20:10:45.8270,0.65,-0.74,-1.53,0.62,0.73,-0.46
2022-12-08 20:10:45.8370,0.65,-0.74,-1.53,0.69,0.64,-0.28
2022-12-08 20:10:45.8470,0.37,-1.1,-2.13,0.65,0.48,-0.14
2022-12-08 20:10:45.8570,0.1,-1.66,-2.31,0.54,0.29,-0.07
2022-12-08 20:10:45.8670,-0.15,-2.13,-2.0,0.4,0.16,-0.02
2022-12-08 20:10:45.8770,-0.41,-2.13,-1.12,0.24,0.06,-0.01
2022-12-08 20:10:45.8870,-0.41,-1.9314090049266817,-0.38,0.11,-0.03,-0.03
2022-12-08 20:10:45.8970,-0.22,-1.77,-0.11,0.06,-0.04,-0.07
2022-12-08 20:10:45.9070,-0.22,-1.77,-0.26705169439315796,0.09,0.02,-0.09
2022-12-08 20:10:45.9170,-0.01,-1.45,-0.27,0.13,0.09,-0.1
2022-12-08 20:10:45.9260,0.6,-0.59,-0.85,0.15,0.12,-0.1
2022-12-08 20:10:45.9360,0.76,-0.13,-1.19,0.14,0.12,-0.11
2022-12-08 20:10:45.9470,0.88,0.28,-1.57,0.12,0.11,-0.13
2022-12-08 20:10:45.9560,0.88,0.28,-1.57,0.11,0.06,-0.13
2022-12-08 20:10:45.9660,0.91,1.01,-1.88,0.11,0.01,-0.14
2022-12-08 20:10:45.9760,0.91,1.01,-1.88,0.11,-0.03,-0.14
2022-12-08 20:10:45.9860,0.86,1.21,-2.03,0.11,-0.05,-0.13
2022-12-08 20:10:45.9960,0.76,1.55,-2.14,0.1,-0.05,-0.09
2022-12-08 20:10:46.0060,0.6,1.63,-2.17,0.09,-0.05,-0.07
2022-12-08 20:10:46.0160,0.42,1.61,-2.1,0.09,-0.05,-0.07
2022-12-08 20:10:46.0260,0.32,1.67,-2.05,0.08,-0.03,-0.06
2022-12-08 20:10:46.0360,0.2,1.61,-2.07,0.07,0.03,-0.04
2022-12-08 20:10:46.0460,0.2,1.61,-2.07,0.06,0.08,-0.03
2022-12-08 20:10:46.0560,-0.24,1.54,-1.84,0.03,0.1,-0.05
2022-12-08 20:10:46.0660,-0.36,1.53,-1.6,0.01,0.12,-0.05
2022-12-08 20:10:46.0760,-0.39,1.62,-1.51,0.0,0.14,-0.04
2022-12-08 20:10:46.0860,-0.46,1.59,-1.54,-0.01,0.14,-0.03
2022-12-08 20:10:46.0960,-0.46,1.59,-1.54,-0.04,0.09,-0.03
2022-12-08 20:10:46.1060,-0.33,1.79,-1.31,-0.06,0.04,0.01
2022-12-08 20:10:46.1160,-0.33,1.9714560002088548,-1.22,-0.06,-0.02,0.04
2022-12-08 20:10:46.1260,-0.15,2.130843497514725,-1.21,-0.06,-0.06,0.07
2022-12-08 20:10:46.1350,0.06,2.13,-1.21,-0.05,-0.06,0.08
2022-12-08 20:10:46.1450,0.21,2.25,-1.19,-0.04,-0.06,0.09
2022-12-08 20:10:46.1560,0.37,2.3652747452259066,-0.86,-0.01,-0.04,0.1
2022-12-08 20:10:46.1650,0.3571935403347016,2.24,-0.67,0.0,-0.02,0.1
2022-12-08 20:10:46.1750,0.28753478318452835,1.9684657341241838,-0.5322118145227432,0.01,-0.01,0.11
2022-12-08 20:10:46.1850,0.28,1.96,-0.54,0.0,0.03,0.12
2022-12-08 20:10:46.1950,0.18,1.58,-0.2077656054496765,-0.02,0.09,0.13
2022-12-08 20:10:46.2050,-0.2,0.69,0.12,-0.05,0.15,0.14
2022-12-08 20:10:46.2150,-0.2,0.69,0.12,-0.09,0.19,0.14
2022-12-08 20:10:46.2250,-0.35,0.28,0.53,-0.15,0.18,0.12
2022-12-08 20:10:46.2350,-0.41874074757099156,-0.27,1.35,-0.21,0.13,0.1
2022-12-08 20:10:46.2450,-0.25,-0.38,1.51,-0.28,0.13,0.07
2022-12-08 20:10:46.2550,0.23,-0.43,1.56,-0.35,0.16,0.06
2022-12-08 20:10:46.2650,0.54,-0.69,1.63,-0.33,0.18,0.05
2022-12-08 20:10:46.2750,0.54,-0.69,1.63,-0.23,0.17,0.1
2022-12-08 20:10:46.2850,0.66,-1.27,1.83,0.0,0.06,0.26
2022-12-08 20:10:46.2950,0.26,-2.8771265548467637,2.7,0.25,-0.13,0.42
2022-12-08 20:10:46.3050,-0.41,-2.88,2.7,0.3,-0.28,0.44
2022-12-08 20:10:46.3150,-0.57,-3.62,2.46,0.21,-0.36,0.37
2022-12-08 20:10:46.3240,-0.25,-3.9,2.5,0.07,-0.4,0.28
2022-12-08 20:10:46.3350,0.0,-3.78,2.61,-0.05,-0.47,0.1
2022-12-08 20:10:46.3450,0.33,-3.57,2.61,-0.1,-0.41,-0.07
2022-12-08 20:10:46.3540,0.9,-2.11,1.38,-0.04,-0.28,-0.17
2022-12-08 20:10:46.3640,0.9,-2.11,1.38,0.09,-0.12,-0.19
2022-12-08 20:10:46.3740,0.82,-1.312019882798195,-0.58,0.19,0.0,-0.17
2022-12-08 20:10:46.3840,0.13,-1.27,-1.28,0.24,0.05,-0.1
2022-12-08 20:10:46.3940,0.13,-1.27,-1.28,0.26,-0.0,0.01
2022-12-08 20:10:46.4040,-0.47,-1.57,-1.5,0.26,-0.13,0.12
2022-12-08 20:10:46.4140,-1.17,-2.06,-1.35,0.24,-0.28,0.2
2022-12-08 20:10:46.4240,-1.81,-2.5,-0.85,0.2,-0.41,0.21
2022-12-08 20:10:46.4340,-2.16,-2.94,-0.21,0.11,-0.45,0.21
2022-12-08 20:10:46.4440,-2.12,-2.67,0.16,-0.03,-0.43,0.15
2022-12-08 20:10:46.4540,-1.91,-2.51,0.63,-0.14,-0.37,0.05
2022-12-08 20:10:46.4640,-1.64,-2.14,0.76,-0.19,-0.21,-0.03
2022-12-08 20:10:46.4740,-1.25,-1.59,0.44,-0.18,-0.05,-0.06
2022-12-08 20:10:46.4840,-0.85,-0.97,0.05,-0.16,0.04,-0.09
2022-12-08 20:10:46.4940,-0.37,-0.03,-0.83,-0.15,0.08,-0.11
2022-12-08 20:10:46.5030,-0.37,-0.03,-0.83,-0.16,0.1,-0.13
2022-12-08 20:10:46.5140,-0.18,0.44,-1.27,-0.19,0.09,-0.13
2022-12-08 20:10:46.5240,-0.02,0.81,-1.54,-0.21,0.07,-0.12
2022-12-08 20:10:46.5340,0.06,1.1,-1.69,-0.21,0.03,-0.1
2022-12-08 20:10:46.5430,0.11,1.38,-1.73,-0.21,0.0,-0.1
2022-12-08 20:10:46.5530,0.19,1.58,-1.87,-0.2,-0.04,-0.09
2022-12-08 20:10:46.5630,0.21,1.83,-1.95,-0.21,-0.08,-0.08
2022-12-08 20:10:46.5730,0.34,1.98,-2.17,-0.2,-0.09,-0.05
2022-12-08 20:10:46.5830,0.42,2.25,-2.25,-0.17,-0.13,-0.03
2022-12-08 20:10:46.5930,0.43,2.3,-2.13,-0.13,-0.1,-0.02
2022-12-08 20:10:46.6030,0.37,2.28,-2.2,-0.11,-0.03,-0.02
2022-12-08 20:10:46.6130,0.37,2.34,-2.21,-0.11,0.03,-0.02
2022-12-08 20:10:46.6230,0.14,2.09,-1.7,-0.12,0.06,-0.03
2022-12-08 20:10:46.6330,0.14,2.09,-1.7,-0.12,0.07,-0.05
2022-12-08 20:10:46.6430,-0.02,1.96,-1.47,-0.12,0.07,-0.08
2022-12-08 20:10:46.6530,-0.14,1.92,-1.34,-0.13,0.03,-0.08
2022-12-08 20:10:46.6630,-0.2,2.03,-1.08,-0.13,0.02,-0.08
2022-12-08 20:10:46.6730,-0.12,2.13,-1.1,-0.12,0.03,-0.09
2022-12-08 20:10:46.6830,-0.05,2.27,-1.17,-0.13,0.04,-0.1
2022-12-08 20:10:46.6930,-0.05,2.29,-1.12,-0.15,0.07,-0.13
2022-12-08 20:10:46.7030,-0.06,2.28,-0.92,-0.14,0.17,-0.13
2022-12-08 20:10:46.7130,-0.22,2.33,-0.62,-0.16,0.25,-0.14
2022-12-08 20:10:46.7230,-0.47,2.24,-0.17,-0.18,0.34,-0.11
2022-12-08 20:10:46.7320,-0.79,2.16,0.22,-0.22,0.39,-0.04
2022-12-08 20:10:46.7430,-1.08,1.89,0.41,-0.21,0.32,0.06
2022-12-08 20:10:46.7530,-1.3,1.45,0.96,-0.2,0.27,0.1
2022-12-08 20:10:46.7630,-1.16,0.81,1.08,-0.18,0.11,0.12
2022-12-08 20:10:46.7720,-0.96,0.6,1.63,-0.14,-0.05,0.14
2022-12-08 20:10:46.7820,-0.68,0.05,1.96,-0.09,-0.14,0.13
2022-12-08 20:10:46.7920,-0.31,-0.34,1.97,-0.02,-0.16,0.1
2022-12-08 20:10:46.8030,-0.03,-0.67,2.02,0.03,-0.13,0.03
2022-12-08 20:10:46.8120,0.45,-0.55,2.11,0.08,-0.02,-0.08
2022-12-08 20:10:46.8220,0.45,-0.23,1.69,0.12,0.13,-0.19
2022-12-08 20:10:46.8320,0.46,-0.23,1.28,0.16,0.26,-0.25
2022-12-08 20:10:46.8420,0.0,-0.56,1.02,0.25,0.32,-0.24
2022-12-08 20:10:46.8520,0.0,-0.56,1.02,0.41,0.27,-0.12
2022-12-08 20:10:46.8620,-0.7,-1.45,1.33,0.59,0.13,0.0
2022-12-08 20:10:46.8720,-1.48,-2.59,2.01,0.68,-0.01,0.07
2022-12-08 20:10:46.8820,-1.44,-3.64,2.6,0.62,-0.02,0.1
2022-12-08 20:10:46.8920,-1.44,-3.64,2.7,0.42,0.05,0.08
2022-12-08 20:10:46.9020,-0.77,-3.6,2.82,0.16,0.11,-0.07
2022-12-08 20:10:46.9120,-0.77,-3.6,2.82,-0.04,0.28,-0.25
2022-12-08 20:10:46.9220,-0.31,-2.78,2.37,-0.09,0.49,-0.39
2022-12-08 20:10:46.9320,0.64,-0.96,0.71,-0.03,0.67,-0.46
2022-12-08 20:10:46.9420,0.63,-0.3,-0.22,0.04,0.79,-0.47
2022-12-08 20:10:46.9510,0.59,-0.2,-0.95,0.1,0.81,-0.43
2022-12-08 20:10:46.9610,0.59,-0.2,-0.95,0.15,0.76,-0.33
2022-12-08 20:10:46.9710,0.13,-0.38,-2.11,0.2,0.64,-0.19
2022-12-08 20:10:46.9810,-0.02,-0.78,-2.05,0.26,0.48,-0.08
2022-12-08 20:10:46.9910,-0.04,-1.13,-1.7,0.27,0.35,-0.01
2022-12-08 20:10:47.0010,-0.04,-1.361611288189888,-0.91,0.22,0.22,0.02
2022-12-08 20:10:47.0110,0.15,-1.58,-0.14,0.14,0.15,0.01
2022-12-08 20:10:47.0210,0.21,-1.57,0.23,0.06,0.18,-0.05
2022-12-08 20:10:47.0310,0.21,-1.57,0.23,0.02,0.21,-0.12
2022-12-08 20:10:47.0410,0.33,-1.6,0.66,0.04,0.26,-0.17
2022-12-08 20:10:47.0510,0.64,-1.18,0.6,0.09,0.36,-0.21
2022-12-08 20:10:47.0610,0.64,-1.18,0.6,0.11,0.42,-0.22
2022-12-08 20:10:47.0710,1.01,-0.48,-0.06,0.11,0.41,-0.22
2022-12-08 20:10:47.0810,1.01,-0.48,-0.06,0.11,0.39,-0.24
2022-12-08 20:10:47.0910,1.28,0.35,-0.77,0.13,0.34,-0.25
2022-12-08 20:10:47.1010,1.28,0.35,-0.77,0.15,0.2,-0.24
2022-12-08 20:10:47.1110,1.37,0.95,-1.19,0.18,0.17,-0.26
2022-12-08 20:10:47.1210,1.37,0.95,-1.63,0.18,0.16,-0.27
2022-12-08 20:10:47.1310,1.45,1.44,-1.5383486437797547,0.17,0.12,-0.26
2022-12-08 20:10:47.1410,1.13,1.72,-1.67,0.17,0.12,-0.25
2022-12-08 20:10:47.1510,1.13,1.72,-1.67,0.13,0.12,-0.24
2022-12-08 20:10:47.1600,0.91,1.88,-1.85,0.11,0.07,-0.2
2022-12-08 20:10:47.1710,0.62,1.72,-1.63,0.06,0.05,-0.15
2022-12-08 20:10:47.1800,0.13,1.46,-1.77,0.01,0.03,-0.11
2022-12-08 20:10:47.1900,0.13,1.46,-1.77,-0.06,-0.01,-0.08
2022-12-08 20:10:47.2000,-0.25,1.3,-1.16,-0.14,-0.03,-0.06
2022-12-08 20:10:47.2100,-0.27,1.29,-0.86,-0.21,-0.03,-0.04
2022-12-08 20:10:47.2200,-0.27,1.29,-0.86,-0.27,-0.02,-0.05
2022-12-08 20:10:47.2300,-0.11,1.36,-0.62,-0.3,0.01,-0.08
2022-12-08 20:10:47.2400,0.04,1.48,-0.44,-0.3,0.03,-0.11
2022-12-08 20:10:47.2500,0.17514662057161332,1.7,-0.28,-0.26,0.04,-0.12
2022-12-08 20:10:47.2600,0.17,1.7,-0.28,-0.2,0.09,-0.11
2022-12-08 20:10:47.2700,0.22,1.9,-0.67,-0.15,0.11,-0.09
2022-12-08 20:10:47.2800,0.16,1.95,-0.67,-0.12,0.08,-0.06
2022-12-08 20:10:47.2900,0.16,1.95,-0.67,-0.11,0.0,-0.02
2022-12-08 20:10:47.3000,0.16,2.03,-0.66,-0.08,-0.09,0.04
2022-12-08 20:10:47.3100,0.16,1.99,-0.66,-0.07,-0.18,0.1
2022-12-08 20:10:47.3200,0.16,1.88,-0.57,-0.05,-0.23,0.15
2022-12-08 20:10:47.3300,0.23,1.62,-0.41,-0.02,-0.26,0.19
2022-12-08 20:10:47.3400,0.2,1.37,0.02,0.0,-0.28,0.2
2022-12-08 20:10:47.3500,0.13,0.59,0.9,0.04,-0.26,0.21
2022-12-08 20:10:47.3590,0.13,0.59,0.9,0.07,-0.21,0.19
2022-12-08 20:10:47.3690,0.14,0.25,1.29,0.06,-0.14,0.16
2022-12-08 20:10:47.3790,0.18,-0.09,1.41,0.03,-0.07,0.14
2022-12-08 20:10:47.3890,0.21,-0.35,1.52,0.01,-0.01,0.12
2022-12-08 20:10:47.3990,0.21,-0.61,1.63,0.03,0.04,0.15
2022-12-08 20:10:47.4090,0.1,-0.98,1.71,0.1,0.06,0.26
2022-12-08 20:10:47.4190,-0.18,-1.66,1.95,0.18,0.01,0.4
2022-12-08 20:10:47.4290,-0.62,-2.47,2.45,0.2,-0.12,0.4
2022-12-08 20:10:47.4390,-0.79,-3.38,2.93,0.17,-0.24,0.33
2022-12-08 20:10:47.4490,-0.78,-3.65,3.19,0.13,-0.32,0.24
2022-12-08 20:10:47.4590,-0.52,-3.69,3.38,0.12,-0.35,0.11
2022-12-08 20:10:47.4690,0.46336728215217593,-2.85,3.11,0.09,-0.38,-0.03
2022-12-08 20:10:47.4790,0.46,-2.85,3.11,0.14,-0.41,-0.11
2022-12-08 20:10:47.4890,0.92,-2.12,2.45,0.25,-0.42,-0.14
2022-12-08 20:10:47.4990,1.1,-1.42,1.29,0.35,-0.39,-0.16
2022-12-08 20:10:47.5090,1.02,-0.92,0.15,0.38,-0.35,-0.15
2022-12-08 20:10:47.5190,0.64,-0.54,-0.62,0.36,-0.28,-0.12
2022-12-08 20:10:47.5290,-0.59,-0.59,-1.68,0.31,-0.21,-0.08
2022-12-08 20:10:47.5390,-0.59,-0.59,-1.68,0.27,-0.18,-0.01
2022-12-08 20:10:47.5490,-2.06,-1.56,-1.54,0.26,-0.19,0.07
2022-12-08 20:10:47.5580,-2.06,-1.56,-1.54,0.24,-0.24,0.14
2022-12-08 20:10:47.5680,-2.64,-1.97,-1.13,0.2,-0.33,0.12
2022-12-08 20:10:47.5780,-2.87,-2.22,-0.61,0.1,-0.34,0.12
2022-12-08 20:10:47.5880,-2.68,-1.94,-0.43,-0.03,-0.35,0.09
2022-12-08 20:10:47.5980,-2.25,-1.47,-0.38,-0.12,-0.31,0.05
2022-12-08 20:10:47.6080,-1.85,-1.17,-0.5,-0.12,-0.25,0.04
2022-12-08 20:10:47.6180,-1.44,-0.65,-0.83,-0.11,-0.22,0.05
2022-12-08 20:10:47.6280,-1.16,-0.28,-0.92,-0.11,-0.2,0.06
2022-12-08 20:10:47.6380,-0.92,0.06,-1.08,-0.14,-0.16,0.05
2022-12-08 20:10:47.6480,-0.42,0.65,-1.33,-0.15,-0.13,0.06
2022-12-08 20:10:47.6580,-0.42,0.65,-1.33,-0.17,-0.1,0.06
2022-12-08 20:10:47.6680,-0.19,0.92,-1.4,-0.18,-0.07,0.06
2022-12-08 20:10:47.6780,0.01,1.2,-1.49,-0.19,-0.05,0.04
2022-12-08 20:10:47.6880,0.18,1.51,-1.58,-0.19,0.0,0.02
2022-12-08 20:10:47.6980,0.49,1.99,-2.02,-0.2,0.08,0.0
2022-12-08 20:10:47.7080,0.49,1.99,-2.02,-0.21,0.12,-0.01
2022-12-08 20:10:47.7180,0.43,2.12,-2.11,-0.2,0.13,-0.01
2022-12-08 20:10:47.7280,0.31,2.17,-2.14,-0.18,0.13,0.01
2022-12-08 20:10:47.7370,0.23,2.13,-2.25,-0.18,0.1,0.02
2022-12-08 20:10:47.7470,0.11,2.02,-2.28,-0.2,0.05,0.03
2022-12-08 20:10:47.7570,0.06,1.9,-2.19,-0.22,-0.02,0.04
2022-12-08 20:10:47.7670,0.02,1.85,-1.92,-0.22,-0.09,0.04
2022-12-08 20:10:47.7770,0.02,1.7,-1.73,-0.23,-0.16,0.04
2022-12-08 20:10:47.7870,-0.04,1.69,-1.52,-0.26,-0.21,0.06
2022-12-08 20:10:47.7970,-0.21,1.71,-0.88,-0.28,-0.25,0.06
2022-12-08 20:10:47.8070,-0.31,1.82,-0.56,-0.29,-0.24,0.05
2022-12-08 20:10:47.8170,-0.31,1.83,-0.25,-0.28,-0.21,0.01
2022-12-08 20:10:47.8270,-0.31,1.83,-0.25,-0.25,-0.12,-0.03
2022-12-08 20:10:47.8370,-0.07,2.22,0.07,-0.22,-0.05,-0.06
2022-12-08 20:10:47.8470,-0.07,2.22,0.07,-0.18,-0.01,-0.08
2022-12-08 20:10:47.8570,0.02,2.23,0.11,-0.13,0.01,-0.07
2022-12-08 20:10:47.8670,0.11,2.29,0.02,-0.06,-0.02,-0.04
2022-12-08 20:10:47.8770,0.1,2.22,-0.02,0.0,-0.08,-0.01
2022-12-08 20:10:47.8870,0.08,2.0,-0.15,0.06,-0.16,0.03
2022-12-08 20:10:47.8970,0.03,1.74,-0.05,0.1,-0.26,0.06
2022-12-08 20:10:47.9070,-0.12,1.44,0.4,0.15,-0.29,0.09
2022-12-08 20:10:47.9170,-0.29,0.89,0.86,0.22,-0.22,0.1
2022-12-08 20:10:47.9270,-0.38,0.27,1.22,0.27,-0.18,0.1
2022-12-08 20:10:47.9360,-0.44,0.06,1.76,0.26,-0.14,0.04
2022-12-08 20:10:47.9460,-0.56,-0.45,2.41,0.25,-0.05,-0.04
2022-12-08 20:10:47.9560,-0.49,-0.63,2.39,0.27,0.07,-0.12
2022-12-08 20:10:47.9660,-0.24,-0.53,2.19,0.32,0.19,-0.19
2022-12-08 20:10:47.9760,-0.04,-0.43,1.88,0.4,0.28,-0.18
2022-12-08 20:10:47.9860,-0.2,-0.72,1.64,0.54,0.29,-0.05
2022-12-08 20:10:47.9960,-0.94,-1.55,1.84,0.67,0.22,0.08
2022-12-08 20:10:48.0060,-1.71,-2.78,2.23,0.74,0.2,0.19
2022-12-08 20:10:48.0160,-1.93,-3.54,2.19,0.63,0.18,0.25
2022-12-08 20:10:48.0260,-1.93,-3.54,2.19,0.39,0.13,0.24
2022-12-08 20:10:48.0360,-1.87,-3.71,2.28,0.1,0.1,0.15
2022-12-08 20:10:48.0460,-1.6,-3.4,2.22,-0.07,0.12,0.0
2022-12-08 20:10:48.0560,-1.15,-2.91,2.23,-0.05,0.24,-0.09
2022-12-08 20:10:48.0660,-0.58,-2.15,1.91,0.01,0.34,-0.13
2022-12-08 20:10:48.0760,-0.19,-1.53,1.43,0.09,0.38,-0.15
2022-12-08 20:10:48.0860,0.06,-1.22,0.92,0.16,0.4,-0.12
2022-12-08 20:10:48.0960,0.21,-1.0,0.28,0.19,0.37,-0.03
2022-12-08 20:10:48.1060,0.28,-0.98,-0.29,0.18,0.27,0.07
2022-12-08 20:10:48.1160,0.29,-1.36,-0.58,0.17,0.13,0.16
2022-12-08 20:10:48.1260,0.26,-1.64,-0.61,0.16,0.01,0.21
2022-12-08 20:10:48.1360,0.27,-1.78,-0.3,0.13,-0.06,0.2
2022-12-08 20:10:48.1460,0.4,-1.92,0.15,0.09,-0.07,0.15
2022-12-08 20:10:48.1560,0.51,-1.71,0.56,0.06,-0.04,0.11
2022-12-08 20:10:48.1660,0.62,-1.49,0.92,0.08,0.02,0.04
2022-12-08 20:10:48.1760,0.72,-1.38,1.0,0.1,0.14,-0.02
2022-12-08 20:10:48.1850,0.85,-1.27,0.45,0.11,0.15,-0.06
2022-12-08 20:10:48.1950,0.92,-0.65,0.38,0.13,0.14,-0.09
2022-12-08 20:10:48.2050,1.03,-0.4,0.09,0.15,0.13,-0.1
2022-12-08 20:10:48.2150,1.09,0.04,-0.44,0.16,0.08,-0.12
2022-12-08 20:10:48.2250,1.14,0.43,-0.84,0.16,0.03,-0.13
2022-12-08 20:10:48.2350,1.19,0.87,-1.21,0.15,-0.0,-0.15
2022-12-08 20:10:48.2450,1.2,1.26,-1.56,0.14,-0.02,-0.16
2022-12-08 20:10:48.2550,1.24,1.64,-1.87,0.14,-0.04,-0.16
2022-12-08 20:10:48.2650,1.15,1.98,-2.0,0.14,-0.04,-0.17
2022-12-08 20:10:48.2750,1.07,2.19,-2.28,0.13,-0.01,-0.16
2022-12-08 20:10:48.2850,0.93,2.38,-2.57,0.1,0.01,-0.13
2022-12-08 20:10:48.2950,0.79,2.45,-2.74,0.08,0.01,-0.08
2022-12-08 20:10:48.3050,0.6,2.48,-2.74,0.06,0.0,-0.04
2022-12-08 20:10:48.3150,0.39,2.36,-2.8,0.03,-0.01,-0.0
2022-12-08 20:10:48.3250,0.17,2.22,-2.83,-0.03,-0.03,0.04
2022-12-08 20:10:48.3350,0.03,2.03,-2.75,-0.09,-0.07,0.08
2022-12-08 20:10:48.3440,-0.07,1.9,-2.49,-0.13,-0.12,0.11
2022-12-08 20:10:48.3540,-0.2,1.74,-2.2,-0.14,-0.16,0.13
2022-12-08 20:10:48.3650,-0.26,1.61,-1.92,-0.16,-0.21,0.15
2022-12-08 20:10:48.3740,-0.29,1.55,-1.62,-0.17,-0.23,0.15
2022-12-08 20:10:48.3850,-0.25,1.55,-1.35,-0.17,-0.2,0.14
2022-12-08 20:10:48.3940,-0.07,1.71,-1.21,-0.16,-0.15,0.11
2022-12-08 20:10:48.4040,0.07,1.8,-1.0,-0.13,-0.04,0.1
2022-12-08 20:10:48.4140,0.25,2.01,-1.02,-0.11,0.03,0.11
2022-12-08 20:10:48.4240,0.36,2.01,-0.98,-0.1,0.02,0.15
2022-12-08 20:10:48.4340,0.28,1.9,-0.78,-0.1,-0.05,0.18
2022-12-08 20:10:48.4440,0.23,1.7,-0.73,-0.1,-0.14,0.22
2022-12-08 20:10:48.4540,0.25,1.46,-0.65,-0.07,-0.22,0.28
2022-12-08 20:10:48.4640,0.29,1.31,-0.4,-0.02,-0.37,0.39
2022-12-08 20:10:48.4740,0.27,0.23,0.48,0.01,-0.37,0.36
2022-12-08 20:10:48.4840,0.27,0.23,0.48,0.01,-0.38,0.35
2022-12-08 20:10:48.4940,0.31,0.27,0.76,-0.04,-0.4,0.33
2022-12-08 20:10:48.5040,0.34,-0.13,1.46,-0.09,-0.37,0.27
2022-12-08 20:10:48.5140,0.49,-0.46,1.68,-0.09,-0.31,0.29
2022-12-08 20:10:48.5240,0.78,-0.95,2.34,-0.05,-0.27,0.17
2022-12-08 20:10:48.5340,0.78,-0.95,2.34,-0.02,-0.19,0.1
2022-12-08 20:10:48.5440,0.89,-0.75,1.89,0.02,-0.19,0.09
2022-12-08 20:10:48.5540,0.92,-0.53,1.99,0.12,-0.19,0.13
2022-12-08 20:10:48.5640,0.76,-0.87,1.64,0.27,-0.22,0.22
2022-12-08 20:10:48.5740,0.33,-1.42,1.49,0.41,-0.36,0.34
2022-12-08 20:10:48.5840,-0.13,-2.06,1.8,0.46,-0.49,0.38
2022-12-08 20:10:48.5940,-0.34,-2.77,1.85,0.42,-0.62,0.39
2022-12-08 20:10:48.6040,-0.45,-3.29,2.08,0.33,-0.7,0.34
2022-12-08 20:10:48.6140,-0.53,-3.59,2.51,0.23,-0.71,0.23
2022-12-08 20:10:48.6230,-0.36,-3.65,2.65,0.18,-0.61,0.09
2022-12-08 20:10:48.6330,-0.16,-3.37,2.85,0.18,-0.43,-0.03
2022-12-08 20:10:48.6430,-0.13,-3.05,2.75,0.24,-0.24,-0.11
2022-12-08 20:10:48.6530,-0.49,-2.74,1.9,0.31,-0.09,-0.11
2022-12-08 20:10:48.6630,-0.49,-2.74,1.9,0.37,-0.03,-0.08
2022-12-08 20:10:48.6750,-0.94,-2.69,0.93,0.38,-0.03,-0.05
2022-12-08 20:10:48.6830,-0.94,-2.69,0.93,0.34,-0.04,-0.05
2022-12-08 20:10:48.6930,-1.1,-2.51,0.57,0.23,-0.01,-0.07
2022-12-08 20:10:48.7030,-1.18,-2.37,0.16,0.11,0.02,-0.08
2022-12-08 20:10:48.7130,-1.31,-2.01,-0.09,-0.02,0.06,-0.11
2022-12-08 20:10:48.7230,-1.43,-1.66,-0.43,-0.13,0.1,-0.14
2022-12-08 20:10:48.7330,-1.5,-1.28,-0.71,-0.2,0.16,-0.14
2022-12-08 20:10:48.7430,-1.47,-0.88,-0.94,-0.24,0.24,-0.14
2022-12-08 20:10:48.7530,-1.38,-0.49,-1.22,-0.27,0.29,-0.14
2022-12-08 20:10:48.7630,-1.2,-0.17,-1.41,-0.32,0.31,-0.16
2022-12-08 20:10:48.7730,-0.92,0.18,-1.66,-0.35,0.32,-0.17
2022-12-08 20:10:48.7820,-0.63,0.61,-1.83,-0.38,0.34,-0.17
2022-12-08 20:10:48.7930,-0.33,1.2801888102293015,-2.36,-0.41,0.34,-0.16
2022-12-08 20:10:48.8020,-0.13,1.28,-2.36,-0.42,0.31,-0.15
2022-12-08 20:10:48.8120,0.01,1.55,-2.52,-0.41,0.25,-0.13
2022-12-08 20:10:48.8220,0.12,1.8,-2.54,-0.38,0.19,-0.11
2022-12-08 20:10:48.8320,0.23,2.06,-2.55,-0.33,0.13,-0.1
2022-12-08 20:10:48.8420,0.37,2.19,-2.58,-0.3,0.09,-0.08
2022-12-08 20:10:48.8520,0.43,2.34,-2.53,-0.27,0.06,-0.07
2022-12-08 20:10:48.8620,0.52,2.54,-2.52,-0.26,0.06,-0.06
2022-12-08 20:10:48.8720,0.57,2.6,-2.51,-0.25,0.06,-0.03
2022-12-08 20:10:48.8820,0.59,2.69,-2.41,-0.23,0.03,-0.0
2022-12-08 20:10:48.8920,0.54,2.71,-2.2,-0.22,-0.01,0.01
2022-12-08 20:10:48.9020,0.48,2.68,-2.09,-0.19,-0.07,0.03
2022-12-08 20:10:48.9120,0.49,2.64,-1.96,-0.19,-0.11,0.03
2022-12-08 20:10:48.9220,0.55,2.61,-1.84,-0.19,-0.14,0.02
2022-12-08 20:10:48.9320,0.46,2.7,-1.58,-0.22,-0.13,0.0
2022-12-08 20:10:48.9420,0.46,2.7,-1.58,-0.22,-0.11,-0.01
2022-12-08 20:10:48.9520,0.33,2.75,-1.31,-0.22,-0.09,-0.03
2022-12-08 20:10:48.9620,0.17,2.74,-0.98,-0.19,-0.07,-0.03
2022-12-08 20:10:48.9720,-0.05,2.78,-0.65,-0.15,-0.05,-0.04
2022-12-08 20:10:48.9810,-0.18,2.498747382760048,-0.28,-0.11,-0.04,-0.04
2022-12-08 20:10:48.9920,-0.31,2.36,-0.08,-0.08,-0.09,-0.04
2022-12-08 20:10:49.0020,-0.61,2.06,0.08,-0.05,-0.16,-0.04
2022-12-08 20:10:49.0110,-0.58,1.66,0.25,-0.04,-0.22,-0.04
2022-12-08 20:10:49.0210,-0.66,1.32,0.61,-0.04,-0.26,-0.03
2022-12-08 20:10:49.0310,-0.66,1.32,0.61,-0.02,-0.27,-0.02
2022-12-08 20:10:49.0410,-0.78,0.8,1.09,-0.0,-0.27,-0.01
2022-12-08 20:10:49.0510,-0.88,0.26,1.66,0.0,-0.22,-0.01
2022-12-08 20:10:49.0610,-0.88,-0.21,2.15,-0.01,-0.16,-0.06
2022-12-08 20:10:49.0710,-0.8,-0.55,2.57,-0.05,-0.08,-0.14
2022-12-08 20:10:49.0810,-0.6,-0.65,2.86,-0.06,0.03,-0.22
2022-12-08 20:10:49.0910,-0.33,-0.57,2.85,-0.04,0.13,-0.29
2022-12-08 20:10:49.1010,-0.11,-0.38,2.57,0.04,0.24,-0.29
2022-12-08 20:10:49.1110,-0.01,-0.79,2.36,0.21,0.32,-0.14
2022-12-08 20:10:49.1210,-1.08,-3.01,3.46,0.42,0.3,0.04
2022-12-08 20:10:49.1310,-1.21,-4.32,3.7,0.48,0.3,0.07
2022-12-08 20:10:49.1410,-1.21,-4.32,3.7,0.31,0.44,0.02
2022-12-08 20:10:49.1510,-0.74,-4.64,3.74,0.01,0.57,-0.12
2022-12-08 20:10:49.1610,-0.09,-4.06,3.84,-0.25,0.65,-0.37
2022-12-08 20:10:49.1710,-0.09,-4.06,3.84,-0.38,0.73,-0.58
2022-12-08 20:10:49.1810,-0.06,-2.68,3.02,-0.38,0.82,-0.66
2022-12-08 20:10:49.1910,0.1,-1.44,2.01,-0.27,0.83,-0.63
2022-12-08 20:10:49.2000,0.02,-0.83,1.23,-0.05,0.81,-0.51
2022-12-08 20:10:49.2100,-0.25,-0.8,0.56,0.2,0.75,-0.3
2022-12-08 20:10:49.2200,-0.52,-1.05,-0.23,0.37,0.62,-0.04
2022-12-08 20:10:49.2300,-0.75,-1.35,-0.69,0.4,0.4,0.17
2022-12-08 20:10:49.2400,-0.63,-2.07,-0.71,0.32,0.11,0.29
2022-12-08 20:10:49.2500,-0.4,-2.7,-0.17,0.17,-0.07,0.29
2022-12-08 20:10:49.2600,0.33406137049198154,-2.78,0.85,0.04,-0.15,0.24
2022-12-08 20:10:49.2700,0.33,-2.78,0.85,-0.05,-0.21,0.13
2022-12-08 20:10:49.2800,0.72,-2.01,1.82,-0.06,-0.16,-0.03
2022-12-08 20:10:49.2900,0.72,-2.01,1.82,0.01,0.07,-0.14
2022-12-08 20:10:49.3000,1.42,-0.5,0.6,0.08,0.29,-0.19
2022-12-08 20:10:49.3100,1.53,0.06,-0.06,0.14,0.4,-0.19
2022-12-08 20:10:49.3250,1.54,0.53,-0.82,0.17,0.43,-0.2
2022-12-08 20:10:49.3350,1.42,0.98,-1.16,0.2,0.36,-0.2
2022-12-08 20:10:49.3400,1.26,1.37,-1.44,0.23,0.26,-0.18
2022-12-08 20:10:49.3500,1.26,1.37,-1.44,0.25,0.19,-0.14
2022-12-08 20:10:49.3590,1.1,1.63,-1.75,0.26,0.11,-0.08
2022-12-08 20:10:49.3690,0.63,2.05,-1.86,0.24,0.03,-0.03
2022-12-08 20:10:49.3790,0.63,2.05,-1.86,0.22,-0.01,0.01
2022-12-08 20:10:49.3890,0.26,2.02,-1.99,0.19,-0.03,0.05
2022-12-08 20:10:49.4040,-0.01,1.83,-1.85,0.18,-0.03,0.09
2022-12-08 20:10:49.4090,-0.28,1.59,-1.56,0.17,-0.04,0.12
2022-12-08 20:10:49.4190,-0.45,1.53,-1.41,0.15,-0.03,0.16
2022-12-08 20:10:49.4290,-0.48,1.47,-1.22,0.11,-0.05,0.18
2022-12-08 20:10:49.4390,-0.39,1.48,-1.22,0.07,-0.04,0.18
2022-12-08 20:10:49.4500,-0.39,1.48,-1.22,0.02,-0.05,0.17
2022-12-08 20:10:49.4590,-0.24,1.6,-1.31,-0.05,-0.05,0.15
2022-12-08 20:10:49.4690,-0.05,1.57,-1.26,-0.09,-0.03,0.13
2022-12-08 20:10:49.4790,0.12,1.83,-1.47,-0.13,-0.03,0.11
2022-12-08 20:10:49.4890,0.39,2.05,-1.68,-0.14,-0.03,0.1
2022-12-08 20:10:49.4990,0.39,2.05,-1.68,-0.14,-0.05,0.09
2022-12-08 20:10:49.5090,0.65,2.07,-1.66,-0.13,-0.08,0.07
2022-12-08 20:10:49.5190,0.65,2.07,-1.66,-0.11,-0.12,0.06
2022-12-08 20:10:49.5290,0.69,2.2,-1.33,-0.1,-0.16,0.08
2022-12-08 20:10:49.5390,0.69,2.2,-1.33,-0.08,-0.18,0.1
2022-12-08 20:10:49.5490,0.8,2.23,-1.04,-0.06,-0.17,0.15
2022-12-08 20:10:49.5590,0.8,2.23,-1.04,-0.02,-0.15,0.19
2022-12-08 20:10:49.5690,0.79,2.01,-0.79,-0.01,-0.16,0.21
2022-12-08 20:10:49.5780,0.72,1.44,-0.45,-0.01,-0.19,0.2
2022-12-08 20:10:49.5880,0.53,0.78,-0.01,-0.02,-0.25,0.18
2022-12-08 20:10:49.5980,0.36,-0.26,1.09,-0.06,-0.31,0.14
2022-12-08 20:10:49.6080,0.36,-0.26,1.09,-0.12,-0.34,0.08
2022-12-08 20:10:49.6180,0.24,-0.45,1.5,-0.2,-0.37,0.03
2022-12-08 20:10:49.6290,0.54,0.02,2.15,-0.29,-0.32,0.02
2022-12-08 20:10:49.6380,0.54,0.02,2.15,-0.37,-0.28,0.01
2022-12-08 20:10:49.6480,0.89,0.05,2.42,-0.38,-0.22,0.02
2022-12-08 20:10:49.6580,1.24,0.08,2.75,-0.36,-0.16,0.07
2022-12-08 20:10:49.6680,1.5,0.24,3.0,-0.34,-0.15,0.12
2022-12-08 20:10:49.6780,1.93,0.06,3.93,-0.25,-0.24,0.15
2022-12-08 20:10:49.6880,1.93,0.06,3.93,0.1,-0.36,0.25
2022-12-08 20:10:49.6980,1.41,-0.83,4.55,0.61,-0.35,0.5
2022-12-08 20:10:49.7080,0.13,-1.66,3.89,0.86,-0.43,0.56
2022-12-08 20:10:49.7180,-1.25,-5.11,3.87,0.84,-0.69,0.38
2022-12-08 20:10:49.7280,-1.25,-5.08,2.74,0.74,-0.72,0.14
2022-12-08 20:10:49.7380,-1.25,-5.08,2.74,0.62,-0.56,0.0
2022-12-08 20:10:49.7480,-1.65,-4.58,1.45,0.45,-0.31,-0.11
2022-12-08 20:10:49.7580,-2.0,-4.48,0.44,0.31,-0.12,-0.21
2022-12-08 20:10:49.7680,-2.26,-3.89,-0.49,0.27,0.03,-0.34
2022-12-08 20:10:49.7780,-2.32,-3.39,-1.13,0.25,0.18,-0.35
2022-12-08 20:10:49.7880,-2.25,-2.82,-2.0,0.26,0.23,-0.22
2022-12-08 20:10:49.7980,-2.28,-2.28,-2.47,0.24,0.26,-0.06
2022-12-08 20:10:49.8080,-2.33,-2.24,-2.97,0.18,0.21,0.07
2022-12-08 20:10:49.8170,-2.29,-2.339300828576088,-2.7,0.04,0.05,0.12
2022-12-08 20:10:49.8280,-1.84,-2.09,-2.35,-0.17,-0.09,0.17
2022-12-08 20:10:49.8370,-1.47,-1.9,-1.87,-0.36,-0.15,0.19
2022-12-08 20:10:49.8470,-1.47,-1.9,-1.87,-0.46,-0.09,0.18
2022-12-08 20:10:49.8570,-1.0,-1.71,-1.47,-0.48,0.0,0.15
2022-12-08 20:10:49.8670,-0.7,-1.3,-1.07,-0.45,0.1,0.1
2022-12-08 20:10:49.8770,-0.44,-0.8,-0.75,-0.38,0.22,0.06
2022-12-08 20:10:49.8870,0.17,0.19,-1.18,-0.31,0.36,0.02
2022-12-08 20:10:49.8970,0.34,0.79,-1.5,-0.27,0.47,0.0
2022-12-08 20:10:49.9070,0.34,0.79,-1.5,-0.26,0.5,-0.03
2022-12-08 20:10:49.9170,0.42,1.14,-1.9,-0.26,0.47,-0.05
2022-12-08 20:10:49.9270,0.41,1.49,-2.34,-0.26,0.41,-0.03
2022-12-08 20:10:49.9370,0.32,1.8,-2.64,-0.28,0.31,-0.01
2022-12-08 20:10:49.9470,0.27,2.09,-2.82,-0.29,0.2,-0.02
2022-12-08 20:10:49.9570,0.23,2.01,-2.69,-0.3,0.1,0.01
2022-12-08 20:10:49.9670,0.07,2.54,-2.57,-0.31,0.04,-0.0
2022-12-08 20:10:49.9770,0.07,2.62,-2.09,-0.31,0.03,-0.02
2022-12-08 20:10:49.9870,0.22,2.91,-1.74,-0.29,0.09,-0.03
2022-12-08 20:10:49.9970,0.22,2.91,-1.74,-0.27,0.17,-0.02
2022-12-08 20:10:50.0070,0.38,3.08,-1.7,-0.25,0.23,-0.0
2022-12-08 20:10:50.0160,0.42,3.06,-1.55,-0.25,0.26,0.0
2022-12-08 20:10:50.0260,0.43,3.07,-1.49,-0.26,0.24,0.01
2022-12-08 20:10:50.0370,0.43,3.02,-1.4,-0.26,0.19,0.02
2022-12-08 20:10:50.0460,0.45,2.81,-1.28,-0.26,0.16,0.04
2022-12-08 20:10:50.0560,0.51,2.47,-1.24,-0.26,0.06,0.08
2022-12-08 20:10:50.0660,0.34,2.51,-0.74,-0.24,-0.05,0.08
2022-12-08 20:10:50.0760,0.33,1.93,0.03,-0.19,-0.11,0.08
2022-12-08 20:10:50.0860,0.32,1.73,0.44,-0.11,-0.12,0.07
2022-12-08 20:10:50.0960,0.38,1.41,1.02,-0.04,-0.09,0.03
2022-12-08 20:10:50.1050,0.39,0.99,1.58,0.02,-0.05,-0.0
2022-12-08 20:10:50.1160,0.24,0.6,2.09,0.08,-0.04,-0.04
2022-12-08 20:10:50.1260,0.04,0.14,2.58,0.16,-0.01,-0.04
2022-12-08 20:10:50.1360,-0.11,-0.23,2.93,0.21,-0.02,-0.05
2022-12-08 20:10:50.1460,-0.1,-0.36,3.06,0.24,-0.05,-0.07
2022-12-08 20:10:50.1560,-0.02,-0.64,3.29,0.23,-0.03,-0.11
2022-12-08 20:10:50.1660,0.11,-0.83,3.03,0.2,-0.0,-0.15
2022-12-08 20:10:50.1760,0.28,-0.83,2.78,0.16,0.04,-0.21
2022-12-08 20:10:50.1860,0.4,-0.8,2.64,0.14,0.07,-0.26
2022-12-08 20:10:50.1960,0.43,-0.64,2.4,0.17,0.08,-0.3
2022-12-08 20:10:50.2060,0.27,-0.72,2.57,0.3,0.11,-0.26
2022-12-08 20:10:50.2150,-0.16,-0.97,2.77,0.5,0.1,-0.14
2022-12-08 20:10:50.2250,-0.81,-1.68,3.45,0.74,0.05,-0.05
2022-12-08 20:10:50.2360,-1.19,-2.98,4.46,0.84,0.06,-0.01
2022-12-08 20:10:50.2450,-0.5,-2.77,4.48,0.72,0.04,-0.08
2022-12-08 20:10:50.2550,-0.5,-2.77,4.48,0.45,-0.0,-0.22
2022-12-08 20:10:50.2650,0.15,-2.09,4.04,0.29,0.09,-0.4
2022-12-08 20:10:50.2750,0.61,-1.37,2.69,0.29,0.3,-0.49
2022-12-08 20:10:50.2850,0.63,-0.69,0.89,0.33,0.45,-0.48
2022-12-08 20:10:50.2950,0.06,-0.39,-0.19,0.34,0.44,-0.42
2022-12-08 20:10:50.3050,-0.53,-0.4,-0.89,0.39,0.41,-0.33
2022-12-08 20:10:50.3150,-1.01,-0.56,-1.74,0.44,0.45,-0.18
2022-12-08 20:10:50.3250,-1.35,-0.78,-2.67,0.42,0.45,-0.03
2022-12-08 20:10:50.3350,-1.65,-1.08,-2.82,0.31,0.37,0.04
2022-12-08 20:10:50.3450,-1.97,-1.61,-2.1,0.15,0.3,0.05
2022-12-08 20:10:50.3550,-1.85,-2.14,-1.32,-0.01,0.25,0.05
2022-12-08 20:10:50.3650,-1.4,-2.24,-0.55,-0.15,0.16,0.01
2022-12-08 20:10:50.3750,-1.07,-2.22,0.4,-0.23,0.05,-0.06
2022-12-08 20:10:50.3850,-0.7,-2.07,0.97,-0.23,0.0,-0.12
2022-12-08 20:10:50.3940,-0.24,-1.82,0.99,-0.15,0.04,-0.15
2022-12-08 20:10:50.4050,0.27,-1.41,0.67,-0.06,0.12,-0.17
2022-12-08 20:10:50.4150,0.75,-1.09,0.29,0.04,0.23,-0.16
2022-12-08 20:10:50.4240,1.16,-0.72,-0.19,0.13,0.29,-0.13
2022-12-08 20:10:50.4340,1.32,-0.03,-0.69,0.19,0.29,-0.14
2022-12-08 20:10:50.4440,1.37,0.24,-0.93,0.21,0.26,-0.14
2022-12-08 20:10:50.4540,1.43,0.74,-1.41,0.18,0.23,-0.16
2022-12-08 20:10:50.4640,1.48,1.09,-1.91,0.16,0.2,-0.18
2022-12-08 20:10:50.4740,1.52,1.35,-2.42,0.13,0.15,-0.19
2022-12-08 20:10:50.4840,1.49,1.59,-2.74,0.09,0.09,-0.22
2022-12-08 20:10:50.4940,1.34,1.8,-2.95,0.06,0.03,-0.23
2022-12-08 20:10:50.5040,1.14,1.94,-3.09,0.04,-0.0,-0.22
2022-12-08 20:10:50.5140,0.91,2.03,-3.09,0.01,-0.03,-0.16
2022-12-08 20:10:50.5240,0.61,2.05,-3.0,-0.01,-0.04,-0.1
2022-12-08 20:10:50.5340,0.32,1.99,-2.87,-0.02,-0.02,-0.04
2022-12-08 20:10:50.5440,0.08,1.86,-2.81,-0.06,-0.01,-0.0
2022-12-08 20:10:50.5540,-0.07,1.66,-2.58,-0.09,-0.01,0.02
2022-12-08 20:10:50.5640,-0.21,1.56,-2.21,-0.11,0.0,0.04
2022-12-08 20:10:50.5740,-0.28,1.47,-1.99,-0.14,0.03,0.03
2022-12-08 20:10:50.5840,-0.24,1.4,-1.83,-0.18,0.03,-0.0
2022-12-08 20:10:50.5930,-0.2,1.39,-1.53,-0.24,0.04,-0.02
2022-12-08 20:10:50.6040,-0.19,1.49,-1.33,-0.26,0.05,-0.03
2022-12-08 20:10:50.6130,-0.15,1.57,-1.01,-0.24,0.06,-0.02
2022-12-08 20:10:50.6230,-0.08,1.6,-0.79,-0.24,0.01,-0.0
2022-12-08 20:10:50.6330,-0.08,1.6,-0.79,-0.22,-0.05,0.01
2022-12-08 20:10:50.6430,0.05,1.55,-0.65,-0.18,-0.1,0.04
2022-12-08 20:10:50.6530,0.22,1.51,-0.47,-0.13,-0.15,0.09
2022-12-08 20:10:50.6630,0.28,1.43,-0.2,-0.1,-0.18,0.13
2022-12-08 20:10:50.6730,0.21,1.1,0.39,-0.08,-0.22,0.17
2022-12-08 20:10:50.6830,0.26,0.82,0.64,-0.08,-0.21,0.19
2022-12-08 20:10:50.6930,0.31,0.42,0.91,-0.08,-0.2,0.2
2022-12-08 20:10:50.7030,0.31,0.42,0.91,-0.11,-0.2,0.2
2022-12-08 20:10:50.7130,0.28,0.02,1.39,-0.13,-0.23,0.21
2022-12-08 20:10:50.7230,0.17,-0.37,1.9,-0.13,-0.22,0.22
2022-12-08 20:10:50.7330,0.32,-0.86,2.62,-0.13,-0.16,0.2
2022-12-08 20:10:50.7430,0.32,-0.86,2.95,-0.13,-0.09,0.18
2022-12-08 20:10:50.7530,0.56,-1.2915072655677795,3.41,-0.08,-0.05,0.26
2022-12-08 20:10:50.7630,0.42,-2.3,4.14,0.09,-0.1,0.41
2022-12-08 20:10:50.7730,0.42,-2.3,4.14,0.29,-0.28,0.55
2022-12-08 20:10:50.7820,0.1,-3.12,4.95,0.36,-0.45,0.52
2022-12-08 20:10:50.7930,0.17,-3.4,5.25,0.3,-0.6,0.36
2022-12-08 20:10:50.8030,0.73,-3.48,5.21,0.2,-0.67,0.19
2022-12-08 20:10:50.8120,1.12,-2.95,3.81,0.11,-0.65,0.03
2022-12-08 20:10:50.8220,1.12,-2.95,3.81,0.13,-0.52,-0.12
2022-12-08 20:10:50.8320,0.98,-2.04,2.36,0.28,-0.33,-0.18
2022-12-08 20:10:50.8420,0.54,-1.47,1.03,0.44,-0.14,-0.19
2022-12-08 20:10:50.8520,-0.11,-1.3,-0.36,0.52,-0.03,-0.17
2022-12-08 20:10:50.8620,-0.68,-1.3,-1.43,0.53,0.02,-0.09
2022-12-08 20:10:50.8720,-1.12,-1.34,-2.09,0.51,-0.04,0.01
2022-12-08 20:10:50.8820,-1.57,-1.7,-2.29,0.44,-0.15,0.08
2022-12-08 20:10:50.8920,-1.94,-2.06,-2.19,0.33,-0.25,0.11
2022-12-08 20:10:50.9020,-2.05,-2.17,-1.99,0.21,-0.3,0.1
2022-12-08 20:10:50.9120,-1.92,-2.36,-1.64,0.06,-0.32,0.08
2022-12-08 20:10:50.9220,-1.72,-2.04,-1.28,-0.09,-0.32,0.04
2022-12-08 20:10:50.9320,-1.56,-1.84,-0.75,-0.19,-0.24,-0.02
2022-12-08 20:10:50.9420,-1.35,-1.69,-0.61,-0.2,-0.09,-0.07
2022-12-08 20:10:50.9520,-1.18,-1.36,-0.75,-0.18,0.04,-0.09
2022-12-08 20:10:50.9620,-0.96,-0.89,-0.93,-0.17,0.12,-0.12
2022-12-08 20:10:50.9720,-0.73,-0.46,-1.21,-0.19,0.19,-0.13
2022-12-08 20:10:50.9820,-0.22,0.52,-2.1,-0.21,0.24,-0.13
2022-12-08 20:10:50.9970,-0.09,0.85,-2.43,-0.23,0.24,-0.12
2022-12-08 20:10:51.0020,-0.05,1.15,-2.72,-0.25,0.24,-0.12
2022-12-08 20:10:51.0120,-0.01,1.38,-2.89,-0.27,0.21,-0.1
2022-12-08 20:10:51.0220,-0.03,1.61,-2.91,-0.28,0.15,-0.06
2022-12-08 20:10:51.0310,-0.03,1.61,-2.91,-0.27,0.08,-0.03
2022-12-08 20:10:51.0410,-0.03,1.77,-2.91,-0.24,0.03,-0.01
2022-12-08 20:10:51.0510,-0.02,1.9,-2.77,-0.22,0.02,0.03
2022-12-08 20:10:51.0610,0.02,2.07,-2.68,-0.23,0.03,0.06
2022-12-08 20:10:51.0710,-0.01,2.04,-2.54,-0.23,0.03,0.06
2022-12-08 20:10:51.0810,-0.03,1.97,-2.38,-0.23,-0.0,0.07
2022-12-08 20:10:51.0910,-0.11,1.96,-2.02,-0.22,-0.03,0.08
2022-12-08 20:10:51.1010,-0.2,1.95,-1.73,-0.21,-0.03,0.09
2022-12-08 20:10:51.1110,-0.17,1.84,-1.39,-0.23,-0.02,0.09
2022-12-08 20:10:51.1210,-0.17,1.84,-1.39,-0.26,-0.01,0.07
2022-12-08 20:10:51.1310,-0.08,2.07,-0.98,-0.28,0.0,0.05
2022-12-08 20:10:51.1410,0.02,2.07,-0.98,-0.3,-0.0,0.05
2022-12-08 20:10:51.1510,0.12,2.21,-0.78,-0.29,-0.01,0.06
2022-12-08 20:10:51.1610,0.23,2.38,-0.35,-0.27,-0.04,0.1
2022-12-08 20:10:51.1710,0.23,2.38,-0.35,-0.25,-0.1,0.14
2022-12-08 20:10:51.1810,0.21,2.46,0.05,-0.22,-0.16,0.16
2022-12-08 20:10:51.1910,0.21,2.46,0.05,-0.19,-0.18,0.17
2022-12-08 20:10:51.2010,0.22,2.53,0.08,-0.13,-0.18,0.18
2022-12-08 20:10:51.2100,0.13,2.13,0.38,-0.06,-0.18,0.21
2022-12-08 20:10:51.2200,0.13,2.13,0.38,0.03,-0.2,0.25
2022-12-08 20:10:51.2300,-0.23,1.17,1.18,0.1,-0.26,0.28
2022-12-08 20:10:51.2400,-0.23,1.17,1.18,0.14,-0.33,0.28
2022-12-08 20:10:51.2510,-0.46,0.61,1.9735493034124376,0.17,-0.38,0.28
2022-12-08 20:10:51.2600,-0.72,-0.38,2.17,0.2,-0.38,0.28
2022-12-08 20:10:51.2700,-0.72,-0.38,2.17,0.22,-0.32,0.22
2022-12-08 20:10:51.2800,-0.77,-0.77,2.3494352227449418,0.2,-0.29,0.14
2022-12-08 20:10:51.2900,-0.78,-0.91,2.34,0.18,-0.22,0.05
2022-12-08 20:10:51.3000,-0.67,-0.62,2.03,0.16,-0.17,-0.04
2022-12-08 20:10:51.3100,-0.39,-0.48,1.95,0.18,-0.18,-0.11
2022-12-08 20:10:51.3200,-0.39,-0.48,1.95,0.26,-0.19,-0.15
2022-12-08 20:10:51.3300,-0.61,-1.26,2.31,0.43,-0.17,-0.04
2022-12-08 20:10:51.3400,-0.61,-1.26,2.31,0.63,-0.21,0.14
2022-12-08 20:10:51.3500,-1.15,-2.08,3.24,0.69,-0.21,0.15
2022-12-08 20:10:51.3600,-1.18,-3.3,3.85,0.56,-0.09,0.08
2022-12-08 20:10:51.3700,-0.6,-3.56,4.11,0.29,0.17,-0.01
2022-12-08 20:10:51.3800,0.13,-2.858908385038376,3.13,0.01,0.38,-0.24
2022-12-08 20:10:51.3900,0.58,-2.86,3.13,-0.15,0.6,-0.44
2022-12-08 20:10:51.4000,0.7,-1.98,2.2,-0.14,0.79,-0.55
2022-12-08 20:10:51.4100,0.73,-1.27,1.35,-0.01,0.91,-0.6
2022-12-08 20:10:51.4190,0.4,-0.9,-0.1,0.13,1.0,-0.58
2022-12-08 20:10:51.4300,0.16,-0.95,-0.63,0.22,1.01,-0.5
2022-12-08 20:10:51.4390,0.16,-0.95,-0.63,0.27,0.9,-0.39
2022-12-08 20:10:51.4500,-0.04,-1.19,-0.82,0.29,0.74,-0.28
2022-12-08 20:10:51.4590,-0.02,-1.63,-0.83,0.31,0.54,-0.21
2022-12-08 20:10:51.4690,0.1,-1.89,-0.6,0.28,0.35,-0.18
2022-12-08 20:10:51.4790,0.3,-2.05,-0.28,0.22,0.24,-0.2
2022-12-08 20:10:51.4890,0.5,-2.12,-0.05,0.15,0.2,-0.22
2022-12-08 20:10:51.4990,0.66,-1.94,0.23,0.13,0.22,-0.26
2022-12-08 20:10:51.5090,0.8,-1.87,0.48,0.13,0.33,-0.25
2022-12-08 20:10:51.5190,0.92,-1.6,0.33,0.14,0.4,-0.3
2022-12-08 20:10:51.5290,1.17,-1.44,0.19,0.16,0.45,-0.33
2022-12-08 20:10:51.5390,1.32,-1.0,-0.33,0.16,0.46,-0.37
2022-12-08 20:10:51.5490,1.45,-0.53,-0.57,0.14,0.46,-0.38
2022-12-08 20:10:51.5590,1.49,-0.05,-1.03,0.13,0.42,-0.4
2022-12-08 20:10:51.5690,1.37,0.33,-1.38,0.11,0.36,-0.41
2022-12-08 20:10:51.5790,1.16,0.69,-1.6,0.11,0.3,-0.39
2022-12-08 20:10:51.5890,0.94,1.07,-1.77,0.12,0.24,-0.36
2022-12-08 20:10:51.5990,0.7,1.36,-1.96,0.12,0.19,-0.33
2022-12-08 20:10:51.6080,0.46,1.65,-2.03,0.12,0.14,-0.29
2022-12-08 20:10:51.6190,0.24,2.0110317099094392,-2.0,0.11,0.09,-0.24
2022-12-08 20:10:51.6290,0.04,2.01,-2.0,0.09,0.08,-0.2
2022-12-08 20:10:51.6380,-0.11,2.1,-2.15,0.06,0.06,-0.18
2022-12-08 20:10:51.6480,-0.24,2.15,-2.11,0.02,0.03,-0.16
2022-12-08 20:10:51.6580,-0.29,2.23,-1.94,0.01,0.01,-0.13
2022-12-08 20:10:51.6680,-0.26,2.27,-1.91,0.0,-0.0,-0.11
2022-12-08 20:10:51.6780,-0.29,2.26,-1.92,-0.02,-0.02,-0.1
2022-12-08 20:10:51.6880,-0.31,2.31,-1.82,-0.05,-0.04,-0.11
2022-12-08 20:10:51.6980,-0.31,2.34,-1.77,-0.1,-0.05,-0.11
2022-12-08 20:10:51.7080,-0.31,2.43,-1.78,-0.12,-0.07,-0.08
2022-12-08 20:10:51.7180,-0.31,2.45,-1.67,-0.12,-0.1,-0.04
2022-12-08 20:10:51.7280,-0.3,2.43,-1.54,-0.11,-0.15,-0.0
2022-12-08 20:10:51.7380,-0.26,2.41,-1.35,-0.09,-0.19,0.03
2022-12-08 20:10:51.7480,-0.14,2.38,-1.18,-0.08,-0.2,0.06
2022-12-08 20:10:51.7580,0.0,2.28,-1.05,-0.06,-0.18,0.08
2022-12-08 20:10:51.7680,0.06,2.02,-0.89,-0.05,-0.19,0.11
2022-12-08 20:10:51.7780,-0.02,1.71,-0.62,-0.01,-0.21,0.14
2022-12-08 20:10:51.7880,-0.17,1.42,-0.23,0.04,-0.24,0.18
2022-12-08 20:10:51.7980,-0.25,1.12,0.11,0.06,-0.25,0.19
2022-12-08 20:10:51.8080,-0.27,0.78,0.34,0.05,-0.23,0.19
2022-12-08 20:10:51.8180,-0.23,0.4,0.5,-0.0,-0.21,0.18
2022-12-08 20:10:51.8280,-0.19,0.08,0.69,-0.06,-0.17,0.16
2022-12-08 20:10:51.8380,-0.16,-0.21,0.94,-0.08,-0.12,0.13
2022-12-08 20:10:51.8470,-0.24,-0.66,1.58,-0.04,-0.06,0.15
2022-12-08 20:10:51.8580,-0.24,-0.66,1.58,0.1,-0.01,0.26
2022-12-08 20:10:51.8670,-0.74,-1.51,2.05,0.35,-0.06,0.48
