time,ax,ay,az,wx,wy,wz
2022-12-08 20:11:45.2450,0.33,-0.12,-0.51,0.01,-0.27,-0.04
Time,0.61,0.35,-0.38,0.08,-0.1,-0.06
2022-12-08 20:11:55.8830,0.62,0.42,-0.31,0.15,0.07,-0.06
2022-12-08 20:11:55.8920,0.4,0.33,-0.58,0.18,0.17,-0.05
2022-12-08 20:11:55.9020,0.4,0.33,-0.58,0.16,0.19,-0.03
2022-12-08 20:11:55.9120,0.11,0.22,-0.75,0.09,0.11,0.01
2022-12-08 20:11:55.9220,-0.18,0.04,-0.64,-0.01,-0.0,0.06
2022-12-08 20:11:55.9320,-0.32,0.05,-0.3,-0.11,-0.09,0.07
2022-12-08 20:11:55.9420,-0.24,0.18,0.42,-0.14,-0.16,0.05
2022-12-08 20:11:55.9520,-0.01,0.31,0.42,-0.09,-0.17,0.01
2022-12-08 20:11:55.9620,0.24,0.33,0.53,-0.01,-0.1,-0.03
2022-12-08 20:11:55.9720,0.4,0.26,0.41,0.04,0.01,-0.03
2022-12-08 20:11:55.9820,0.55,0.38,0.02,0.07,0.07,-0.03
2022-12-08 20:11:55.9920,0.52,0.51,0.03,0.09,0.05,-0.05
2022-12-08 20:11:56.0020,0.52,0.51,0.03,0.1,-0.0,-0.06
2022-12-08 20:11:56.0120,0.35,0.63,0.09,0.1,-0.02,-0.06
2022-12-08 20:11:56.0220,0.09,0.57,0.09,0.1,0.0,-0.04
2022-12-08 20:11:56.0320,-0.11,0.41,-0.01,0.08,0.05,-0.0
2022-12-08 20:11:56.0410,-0.21,0.07,0.12,0.04,0.1,0.03
2022-12-08 20:11:56.0520,-0.21,0.07,0.12,-0.02,0.14,0.06
2022-12-08 20:11:56.0610,-0.14,-0.02,0.31,-0.06,0.15,0.08
2022-12-08 20:11:56.0710,0.0,-0.02,0.55,-0.06,0.11,0.05
2022-12-08 20:11:56.0810,0.17,-0.18,0.77,-0.03,0.0,0.0
2022-12-08 20:11:56.0910,0.27,-0.24,1.03,-0.01,-0.12,-0.05
2022-12-08 20:11:56.1010,0.49,-0.24,1.24,0.01,-0.23,-0.08
2022-12-08 20:11:56.1110,0.58,-0.12,1.32,0.03,-0.31,-0.09
2022-12-08 20:11:56.1210,0.63,-0.03,1.23,0.03,-0.28,-0.07
2022-12-08 20:11:56.1310,0.67,0.13,0.57,0.01,-0.15,-0.04
2022-12-08 20:11:56.1410,0.75,0.27,-0.15,-0.01,0.0,-0.0
2022-12-08 20:11:56.1510,0.69,0.25,-0.38,-0.02,0.13,0.02
2022-12-08 20:11:56.1610,0.46,0.01,-0.24,-0.04,0.2,0.02
2022-12-08 20:11:56.1710,0.18,-0.15,0.01,-0.08,0.17,0.05
2022-12-08 20:11:56.1810,0.07,-0.12,0.2,-0.12,0.03,0.04
2022-12-08 20:11:56.1910,0.1,0.1,0.21,-0.16,-0.1,0.01
2022-12-08 20:11:56.2010,0.24,0.45,-0.08,-0.2,-0.09,-0.0
2022-12-08 20:11:56.2110,0.2,0.87,-0.73,-0.22,-0.03,-0.01
2022-12-08 20:11:56.2210,0.27,1.25,-0.9,-0.2,0.01,0.01
2022-12-08 20:11:56.2310,0.4,1.69,-0.84,-0.18,0.11,0.07
2022-12-08 20:11:56.2410,0.45,2.07,-1.07,-0.16,0.26,0.16
2022-12-08 20:11:56.2510,0.52,2.14,-1.23,-0.16,0.46,0.26
2022-12-08 20:11:56.2610,0.69,1.99,-1.21,-0.17,0.7,0.37
2022-12-08 20:11:56.2700,0.84,1.74,-0.99,-0.15,0.92,0.44
2022-12-08 20:11:56.2810,0.81,1.34,-0.5,-0.12,1.12,0.53
2022-12-08 20:11:56.2900,0.69,1.15,0.06,0.04,1.19,0.58
2022-12-08 20:11:56.3000,0.34,1.33,0.72,0.14,1.3,0.63
2022-12-08 20:11:56.3110,0.37,0.6,0.89,0.26,1.37,0.61
2022-12-08 20:11:56.3200,0.63,0.0,0.92,0.42,1.39,0.54
2022-12-08 20:11:56.3300,0.62,-0.16,1.28,0.63,1.39,0.5
2022-12-08 20:11:56.3400,0.24,0.23,1.4,0.76,1.53,0.47
2022-12-08 20:11:56.3500,-0.05,0.2,1.08,0.9,1.57,0.41
2022-12-08 20:11:56.3600,-0.31,-0.11,1.28,1.06,1.44,0.43
2022-12-08 20:11:56.3700,-0.57,0.7,1.71,1.16,1.22,0.5
2022-12-08 20:11:56.3800,-0.68,1.51,1.89,1.15,0.83,0.5
2022-12-08 20:11:56.3900,-1.07,1.22,2.11,1.02,0.3,0.42
2022-12-08 20:11:56.4000,-1.76,0.5,2.74,0.81,-0.11,0.33
2022-12-08 20:11:56.4100,-2.29,0.18,2.8,0.61,-0.26,0.29
2022-12-08 20:11:56.4200,-2.41,0.21,2.14,0.48,-0.18,0.31
2022-12-08 20:11:56.4300,-2.45,0.11,1.73,0.38,-0.08,0.36
2022-12-08 20:11:56.4400,-2.51,-0.08,1.88,0.27,-0.03,0.42
2022-12-08 20:11:56.4500,-2.52,-0.15,2.26,0.17,-0.05,0.47
2022-12-08 20:11:56.4600,-2.44,-0.01,2.39,0.09,-0.08,0.52
2022-12-08 20:11:56.4700,-2.31,0.34,2.22,0.03,-0.07,0.55
2022-12-08 20:11:56.4800,-2.11,0.69,1.91,-0.03,-0.04,0.56
2022-12-08 20:11:56.4890,-1.87,0.93,1.58,-0.07,-0.04,0.53
2022-12-08 20:11:56.4990,-1.6,1.11,1.35,-0.11,-0.07,0.49
2022-12-08 20:11:56.5090,-0.86,1.5,1.03,-0.14,-0.06,0.43
2022-12-08 20:11:56.5200,-0.86,1.5,1.03,-0.18,0.01,0.38
2022-12-08 20:11:56.5290,-0.44,1.63,0.65,-0.21,0.09,0.34
2022-12-08 20:11:56.5390,-0.29,1.91,0.61,-0.23,0.14,0.29
2022-12-08 20:11:56.5490,-0.18,2.15,0.76,-0.26,0.15,0.23
2022-12-08 20:11:56.5590,-0.06,2.16,0.75,-0.28,0.1,0.19
2022-12-08 20:11:56.5690,-0.04,2.08,0.91,-0.28,0.03,0.19
2022-12-08 20:11:56.5790,-0.07,2.04,1.09,-0.28,-0.04,0.24
2022-12-08 20:11:56.5890,-0.03,1.98,1.15,-0.24,-0.12,0.31
2022-12-08 20:11:56.5990,-0.1,1.85,1.34,-0.19,-0.18,0.35
2022-12-08 20:11:56.6090,-0.27,1.56,1.42,-0.18,-0.2,0.38
2022-12-08 20:11:56.6190,-0.42,1.4,1.39,-0.19,-0.25,0.4
2022-12-08 20:11:56.6290,-0.42,1.47,1.64,-0.19,-0.31,0.4
2022-12-08 20:11:56.6390,-0.32,1.67,1.82,-0.2,-0.33,0.39
2022-12-08 20:11:56.6490,-0.53,1.73,1.8,-0.2,-0.38,0.37
2022-12-08 20:11:56.6590,-0.73,1.65,2.1,-0.18,-0.43,0.33
2022-12-08 20:11:56.6690,-0.79,1.54,2.25,-0.14,-0.45,0.3
2022-12-08 20:11:56.6790,-0.9,1.36,2.36,-0.08,-0.45,0.3
2022-12-08 20:11:56.6890,-1.3,1.12,2.66,-0.02,-0.43,0.3
2022-12-08 20:11:56.7040,-1.34,1.05,2.67,0.03,-0.39,0.27
2022-12-08 20:11:56.7130,-1.43,1.05,2.72,0.08,-0.36,0.23
2022-12-08 20:11:56.7180,-1.64,1.07,2.55,0.08,-0.33,0.2
2022-12-08 20:11:56.7280,-1.64,1.07,2.55,0.06,-0.33,0.21
2022-12-08 20:11:56.7380,-1.64,0.91,2.54,0.03,-0.37,0.29
2022-12-08 20:11:56.7480,-1.54,0.74,2.79,0.0,-0.46,0.38
2022-12-08 20:11:56.7580,-1.67,0.65,2.95,-0.02,-0.47,0.45
2022-12-08 20:11:56.7680,-1.41,0.35,2.69,-0.05,-0.54,0.51
2022-12-08 20:11:56.7780,-1.26,0.26,2.76,-0.06,-0.59,0.54
2022-12-08 20:11:56.7880,-1.1,0.19,3.01,-0.05,-0.6,0.53
2022-12-08 20:11:56.7980,-0.85,0.02,3.22,-0.03,-0.54,0.47
2022-12-08 20:11:56.8080,-0.23,-0.09,3.37,0.03,-0.37,0.42
2022-12-08 20:11:56.8180,0.14,-0.08,3.58,0.07,-0.21,0.36
2022-12-08 20:11:56.8280,0.14,-0.08,3.58,0.1,-0.07,0.27
2022-12-08 20:11:56.8370,0.41,-0.2,3.65,0.16,0.03,0.17
2022-12-08 20:11:56.8480,0.55,-0.35,3.61,0.22,0.07,0.06
2022-12-08 20:11:56.8580,0.69,-0.25,3.67,0.3,0.07,-0.04
2022-12-08 20:11:56.8670,0.72,-0.25,3.65,0.42,0.02,-0.12
2022-12-08 20:11:56.8780,0.59,-0.56,3.81,0.56,-0.04,-0.17
2022-12-08 20:11:56.8880,0.37,-0.85,3.68,0.66,-0.13,-0.17
2022-12-08 20:11:56.8980,0.22,-0.92,3.14,0.71,-0.21,-0.16
2022-12-08 20:11:56.9080,-0.03,-0.88,2.54,0.74,-0.29,-0.22
2022-12-08 20:11:56.9180,-0.28,-0.8,1.94,0.75,-0.27,-0.31
2022-12-08 20:11:56.9280,-0.38,-0.41,1.22,0.75,-0.22,-0.36
2022-12-08 20:11:56.9370,-0.43,0.04,0.13,0.79,-0.14,-0.39
2022-12-08 20:11:56.9470,-0.42,-0.16,-0.48,0.84,-0.02,-0.42
2022-12-08 20:11:56.9570,-0.42,-0.16,-0.48,0.84,0.09,-0.39
2022-12-08 20:11:56.9670,-0.36,-0.15,-0.82,0.81,0.18,-0.28
2022-12-08 20:11:56.9770,-0.34,-0.43,-0.84,0.77,0.29,-0.19
2022-12-08 20:11:56.9870,-0.36,-1.06,-1.04,0.74,0.36,-0.11
2022-12-08 20:11:56.9970,-0.42,-1.59,-0.93,0.7,0.34,-0.06
2022-12-08 20:11:57.0070,-0.24,-2.23,-0.5,0.64,0.33,-0.06
2022-12-08 20:11:57.0170,0.28,-2.81,-0.41,0.55,0.38,0.04
2022-12-08 20:11:57.0270,0.55,-2.3,-0.6,0.48,0.3,0.1
2022-12-08 20:11:57.0370,0.66,-1.97,-0.17,0.41,0.23,-0.01
2022-12-08 20:11:57.0470,1.17,-3.0,-0.08,0.4,0.2,-0.14
2022-12-08 20:11:57.0570,1.39,-3.11,-0.12,0.46,0.26,-0.21
2022-12-08 20:11:57.0670,1.39,-2.24,-0.41,0.52,0.3,-0.25
2022-12-08 20:11:57.0770,1.33,-1.6,-0.6,0.54,0.32,-0.3
2022-12-08 20:11:57.0870,1.3,-1.25,-0.78,0.51,0.35,-0.34
2022-12-08 20:11:57.0970,1.34,-0.86,-1.39,0.45,0.38,-0.37
2022-12-08 20:11:57.1060,1.42,0.16,-2.17,0.36,0.4,-0.37
2022-12-08 20:11:57.1170,1.42,0.16,-2.17,0.26,0.34,-0.4
2022-12-08 20:11:57.1270,1.42,0.28,-2.03,0.19,0.23,-0.43
2022-12-08 20:11:57.1370,1.32,0.43,-1.9,0.14,0.13,-0.43
2022-12-08 20:11:57.1460,1.21,0.87,-2.15,0.13,0.09,-0.39
2022-12-08 20:11:57.1560,1.14,1.32,-2.49,0.13,0.1,-0.36
2022-12-08 20:11:57.1650,1.21,1.56,-2.89,0.11,0.04,-0.35
2022-12-08 20:11:57.1760,1.18,1.7,-2.93,0.12,-0.03,-0.31
2022-12-08 20:11:57.1860,1.02,2.05,-2.75,0.12,-0.05,-0.26
2022-12-08 20:11:57.1960,0.69,2.3,-2.82,0.12,-0.04,-0.21
2022-12-08 20:11:57.2060,0.69,2.3,-2.82,0.11,-0.05,-0.14
2022-12-08 20:11:57.2160,0.47,2.43,-2.57,0.11,-0.08,-0.11
2022-12-08 20:11:57.2260,0.29,2.37,-2.2,0.09,-0.06,-0.11
2022-12-08 20:11:57.2360,0.21,2.35,-1.93,0.05,-0.07,-0.11
2022-12-08 20:11:57.2460,0.16,2.38,-1.65,0.01,-0.08,-0.11
2022-12-08 20:11:57.2560,0.08,2.36,-1.36,-0.04,-0.09,-0.09
2022-12-08 20:11:57.2660,0.05,2.28,-1.25,-0.06,-0.11,-0.04
2022-12-08 20:11:57.2760,-0.01,2.21,-1.0,-0.06,-0.15,0.02
2022-12-08 20:11:57.2860,-0.13,2.14,-0.59,-0.02,-0.19,0.07
2022-12-08 20:11:57.2950,-0.16,2.09,-0.1,0.05,-0.22,0.13
2022-12-08 20:11:57.3060,-0.26,1.99,0.24,0.13,-0.23,0.14
2022-12-08 20:11:57.3160,-0.15,1.85,0.6,0.21,-0.18,0.13
2022-12-08 20:11:57.3250,-0.02,1.76,0.65,0.24,-0.16,0.11
2022-12-08 20:11:57.3350,0.06,1.28,0.85,0.23,-0.2,0.08
2022-12-08 20:11:57.3450,0.09,0.8,1.21,0.21,-0.28,0.04
2022-12-08 20:11:57.3550,0.08,0.46,1.41,0.18,-0.38,0.01
2022-12-08 20:11:57.3650,-0.04,0.26,1.65,0.16,-0.46,0.02
2022-12-08 20:11:57.3750,-0.24,0.14,1.99,0.15,-0.49,0.03
2022-12-08 20:11:57.3850,-0.26,0.16,2.24,0.15,-0.43,0.07
2022-12-08 20:11:57.3950,-0.23,0.25,2.48,0.18,-0.32,0.11
2022-12-08 20:11:57.4050,-0.11,0.08,2.62,0.23,-0.19,0.16
2022-12-08 20:11:57.4150,0.02,-0.02,2.73,0.27,-0.06,0.18
2022-12-08 20:11:57.4260,0.35,0.03,2.67,0.3,0.1,0.19
2022-12-08 20:11:57.4350,0.76,-0.12,2.3,0.36,0.24,0.22
2022-12-08 20:11:57.4450,1.01,-0.19,2.08,0.43,0.33,0.24
2022-12-08 20:11:57.4550,1.03,-0.36,1.84,0.55,0.35,0.27
2022-12-08 20:11:57.4650,0.59,-0.81,1.75,0.7,0.28,0.29
2022-12-08 20:11:57.4740,-0.16,-1.35,1.93,0.8,0.12,0.27
2022-12-08 20:11:57.4850,-0.69,-2.01,2.09,0.79,-0.03,0.24
2022-12-08 20:11:57.4940,-0.9,-2.55,1.85,0.74,-0.05,0.21
2022-12-08 20:11:57.5040,-1.04,-2.88,1.48,0.69,-0.07,0.16
2022-12-08 20:11:57.5150,-1.08,-2.89,1.12,0.56,-0.07,0.05
2022-12-08 20:11:57.5240,-0.84,-2.65,0.46,0.38,0.01,-0.06
2022-12-08 20:11:57.5340,-0.38,-2.38,-0.39,0.22,0.11,-0.13
2022-12-08 20:11:57.5440,-0.03,-2.27,-1.05,0.14,0.17,-0.13
2022-12-08 20:11:57.5540,0.05,-2.15,-1.21,0.16,0.19,-0.1
2022-12-08 20:11:57.5640,-0.18,-1.98,-1.42,0.2,0.13,-0.02
2022-12-08 20:11:57.5740,-0.5,-1.93,-1.41,0.25,-0.0,0.07
2022-12-08 20:11:57.5840,-0.81,-1.78,-1.32,0.25,-0.16,0.11
2022-12-08 20:11:57.5940,-1.01,-1.76,-1.34,0.19,-0.25,0.11
2022-12-08 20:11:57.6040,-0.9,-1.72,-1.61,0.12,-0.24,0.1
2022-12-08 20:11:57.6140,-0.77,-1.46,-1.79,0.04,-0.18,0.07
2022-12-08 20:11:57.6240,-0.73,-1.11,-1.81,-0.03,-0.08,0.01
2022-12-08 20:11:57.6340,-0.62,-0.68,-1.71,-0.06,0.06,-0.04
2022-12-08 20:11:57.6440,-0.51,-0.15,-1.79,-0.09,0.17,-0.1
2022-12-08 20:11:57.6540,-0.4,0.2,-1.98,-0.09,0.22,-0.11
2022-12-08 20:11:57.6640,-0.44,0.56,-2.06,-0.08,0.22,-0.11
2022-12-08 20:11:57.6740,-0.53,0.95,-2.05,-0.06,0.2,-0.11
2022-12-08 20:11:57.6840,-0.44,1.27,-2.29,-0.06,0.17,-0.08
2022-12-08 20:11:57.6940,-0.34,1.59,-2.48,-0.07,0.1,-0.04
2022-12-08 20:11:57.7040,-0.25,1.71,-2.52,-0.07,0.03,0.02
2022-12-08 20:11:57.7140,-0.21,1.7,-2.48,-0.1,-0.05,0.06
2022-12-08 20:11:57.7230,-0.18,1.72,-2.4,-0.15,-0.13,0.08
2022-12-08 20:11:57.7330,-0.18,1.72,-2.4,-0.16,-0.19,0.1
2022-12-08 20:11:57.7430,-0.24,1.9,-1.77,-0.14,-0.22,0.1
2022-12-08 20:11:57.7530,-0.24,1.9,-1.77,-0.17,-0.2,0.08
2022-12-08 20:11:57.7630,-0.36,1.95,-1.53,-0.18,-0.18,0.06
2022-12-08 20:11:57.7730,-0.36,1.95,-1.53,-0.17,-0.13,0.07
2022-12-08 20:11:57.7830,-0.49,2.16,-1.5,-0.17,-0.11,0.09
2022-12-08 20:11:57.7930,-0.54,2.16,-1.39,-0.15,-0.11,0.1
2022-12-08 20:11:57.8030,-0.57,2.18,-1.29,-0.12,-0.11,0.1
2022-12-08 20:11:57.8130,-0.46,2.3,-1.27,-0.11,-0.12,0.1
2022-12-08 20:11:57.8230,-0.26,2.29,-1.23,-0.12,-0.12,0.09
2022-12-08 20:11:57.8330,-0.07,2.24,-1.11,-0.13,-0.12,0.08
2022-12-08 20:11:57.8430,0.04,2.12,-0.97,-0.13,-0.14,0.07
2022-12-08 20:11:57.8530,0.06,2.04,-0.6,-0.08,-0.15,0.05
2022-12-08 20:11:57.8630,-0.15,2.04,-0.15,-0.05,-0.14,0.06
2022-12-08 20:11:57.8730,-0.19,1.74,0.15,-0.01,-0.14,0.1
2022-12-08 20:11:57.8830,-0.33,1.37,0.53,0.05,-0.17,0.12
2022-12-08 20:11:57.8930,-0.54,1.01,0.85,0.12,-0.22,0.12
2022-12-08 20:11:57.9030,-0.66,0.48,1.22,0.2,-0.28,0.15
2022-12-08 20:11:57.9130,-0.79,0.12,1.67,0.28,-0.35,0.18
2022-12-08 20:11:57.9230,-0.96,-0.29,2.24,0.3,-0.39,0.16
2022-12-08 20:11:57.9330,-1.09,-0.75,2.55,0.26,-0.38,0.12
2022-12-08 20:11:57.9420,-1.13,-0.86,2.59,0.15,-0.33,0.03
2022-12-08 20:11:57.9520,-0.97,-0.95,2.49,0.07,-0.25,-0.06
2022-12-08 20:11:57.9630,-0.72,-0.74,2.48,0.03,-0.14,-0.12
2022-12-08 20:11:57.9720,-0.33,-0.53,2.39,0.03,-0.07,-0.16
2022-12-08 20:11:57.9830,-0.06,-0.39,2.3,0.07,-0.04,-0.18
2022-12-08 20:11:57.9920,0.13,-0.33,2.18,0.2,-0.02,-0.12
2022-12-08 20:11:58.0020,0.11,-0.57,2.17,0.36,-0.05,-0.04
2022-12-08 20:11:58.0120,-0.03,-1.01,2.43,0.48,-0.12,-0.0
2022-12-08 20:11:58.0220,-0.06,-1.28,2.44,0.53,-0.14,-0.0
2022-12-08 20:11:58.0320,0.18,-1.51,2.05,0.54,-0.07,-0.01
2022-12-08 20:11:58.0420,0.47,-1.78,1.63,0.5,0.02,-0.06
2022-12-08 20:11:58.0520,0.68,-1.73,1.26,0.43,0.13,-0.19
2022-12-08 20:11:58.0620,0.96,-1.43,0.51,0.33,0.29,-0.29
2022-12-08 20:11:58.0720,1.29,-0.45,-0.65,0.26,0.32,-0.39
2022-12-08 20:11:58.0820,1.29,-0.77,-0.96,0.23,0.38,-0.44
2022-12-08 20:11:58.0970,0.91,-0.41,-1.5,0.25,0.46,-0.37
2022-12-08 20:11:58.1060,0.38,-0.82,-1.23,0.23,0.47,-0.22
2022-12-08 20:11:58.1110,0.38,-0.82,-1.23,0.22,0.46,-0.08
2022-12-08 20:11:58.1210,-0.37,-1.63,-0.88,0.23,0.41,0.04
2022-12-08 20:11:58.1320,-1.0,-2.31,-0.38,0.19,0.39,0.11
2022-12-08 20:11:58.1410,-1.25,-2.84,-0.09,0.08,0.33,0.12
2022-12-08 20:11:58.1520,-1.13,-3.03,0.15,-0.06,0.25,0.1
2022-12-08 20:11:58.1610,-1.15,-2.96,0.47,-0.13,0.16,0.04
2022-12-08 20:11:58.1710,-1.13,-2.7,0.74,-0.16,0.16,-0.02
2022-12-08 20:11:58.1810,-0.95,-2.23,0.66,-0.17,0.23,-0.05
2022-12-08 20:11:58.1910,-0.7,-1.54,0.37,-0.16,0.23,-0.13
2022-12-08 20:11:58.2010,-0.25,-1.32,0.25,-0.16,0.31,-0.16
2022-12-08 20:11:58.2110,0.6,0.15,-1.13,-0.17,0.27,-0.15
2022-12-08 20:11:58.2210,0.86,0.8,-1.61,-0.21,0.21,-0.12
2022-12-08 20:11:58.2310,0.86,0.8,-1.61,-0.23,0.15,-0.1
2022-12-08 20:11:58.2410,1.06,1.37,-2.3,-0.25,0.08,-0.08
2022-12-08 20:11:58.2510,1.21,1.94,-2.59,-0.31,0.03,-0.08
2022-12-08 20:11:58.2610,1.41,2.5,-2.89,-0.36,-0.02,-0.08
2022-12-08 20:11:58.2710,1.49,3.01,-3.13,-0.39,-0.07,-0.05
2022-12-08 20:11:58.2810,1.49,3.01,-3.13,-0.4,-0.1,-0.01
2022-12-08 20:11:58.2910,1.34,3.14,-3.23,-0.38,-0.14,0.05
2022-12-08 20:11:58.3010,0.79,3.09,-2.8,-0.32,-0.17,0.14
2022-12-08 20:11:58.3110,0.79,3.09,-2.8,-0.25,-0.2,0.22
2022-12-08 20:11:58.3200,0.52,2.96,-2.6,-0.19,-0.23,0.27
2022-12-08 20:11:58.3300,0.35,2.79,-2.31,-0.16,-0.22,0.3
2022-12-08 20:11:58.3410,0.31,2.63,-2.11,-0.17,-0.2,0.3
2022-12-08 20:11:58.3500,0.43,2.43,-1.99,-0.2,-0.17,0.32
2022-12-08 20:11:58.3600,0.53,2.29,-1.81,-0.24,-0.17,0.32
2022-12-08 20:11:58.3710,0.72,1.96,-1.35,-0.26,-0.13,0.28
2022-12-08 20:11:58.3800,0.91,1.8,-1.07,-0.25,-0.05,0.22
2022-12-08 20:11:58.3900,1.0,1.7,-0.94,-0.22,0.06,0.14
2022-12-08 20:11:58.4000,0.91,1.52,-0.72,-0.19,0.18,0.07
2022-12-08 20:11:58.4100,0.75,1.33,-0.52,-0.19,0.26,-0.01
2022-12-08 20:11:58.4200,0.57,1.04,-0.18,-0.19,0.28,-0.04
2022-12-08 20:11:58.4300,0.35,0.8,0.24,-0.17,0.26,-0.01
2022-12-08 20:11:58.4400,0.1,0.67,0.6,-0.12,0.21,0.03
2022-12-08 20:11:58.4500,-0.09,0.36,0.83,-0.09,0.16,0.07
2022-12-08 20:11:58.4600,-0.21,0.0,1.07,-0.09,0.15,0.13
2022-12-08 20:11:58.4700,-0.22,-0.35,1.4,-0.1,0.12,0.17
2022-12-08 20:11:58.4800,-0.23,-0.75,1.92,-0.15,0.12,0.16
2022-12-08 20:11:58.4900,-0.16,-1.1,2.27,-0.23,0.11,0.15
2022-12-08 20:11:58.5000,0.05,-1.51,2.7,-0.32,0.15,0.22
2022-12-08 20:11:58.5100,0.26,-1.42,2.97,-0.33,0.13,0.24
2022-12-08 20:11:58.5190,0.41,-1.9,3.48,-0.19,0.07,0.32
2022-12-08 20:11:58.5290,0.41,-2.72,4.16,-0.06,-0.06,0.43
2022-12-08 20:11:58.5390,0.18,-2.96,4.59,-0.03,-0.21,0.47
2022-12-08 20:11:58.5490,0.04,-3.69,4.53,-0.09,-0.34,0.42
2022-12-08 20:11:58.5590,0.1,-4.21,4.16,-0.14,-0.46,0.3
2022-12-08 20:11:58.5690,0.24,-4.04,3.68,-0.17,-0.59,0.16
2022-12-08 20:11:58.5790,0.41,-3.85,3.12,-0.2,-0.64,0.02
2022-12-08 20:11:58.5890,0.63,-2.99,2.25,-0.18,-0.63,-0.12
2022-12-08 20:11:58.5990,0.84,-2.06,1.37,-0.06,-0.53,-0.21
2022-12-08 20:11:58.6090,0.7,-1.22,0.38,0.08,-0.48,-0.25
2022-12-08 20:11:58.6190,0.22,-0.65,-0.49,0.17,-0.44,-0.2
2022-12-08 20:11:58.6290,-0.2,-0.62,-1.07,0.23,-0.39,-0.09
2022-12-08 20:11:58.6390,-0.45,-0.84,-1.44,0.28,-0.38,0.06
2022-12-08 20:11:58.6490,-0.74,-1.04,-1.41,0.31,-0.44,0.19
2022-12-08 20:11:58.6590,-1.21,-1.33,-0.83,0.31,-0.48,0.23
2022-12-08 20:11:58.6690,-1.69,-1.96,-0.53,0.24,-0.44,0.21
2022-12-08 20:11:58.6790,-1.9,-2.43,-0.52,0.1,-0.35,0.15
2022-12-08 20:11:58.6890,-1.86,-2.55,-0.37,-0.05,-0.23,0.05
2022-12-08 20:11:58.6990,-1.64,-2.34,-0.12,-0.17,-0.05,-0.05
2022-12-08 20:11:58.7090,-1.59,-1.85,-0.27,-0.23,0.04,-0.15
2022-12-08 20:11:58.7190,-1.8,-1.52,0.01,-0.23,0.11,-0.24
2022-12-08 20:11:58.7280,-1.79,-1.0,0.26,-0.19,0.23,-0.28
2022-12-08 20:11:58.7380,-1.4,-0.3,-0.18,-0.19,0.36,-0.3
2022-12-08 20:11:58.7480,-0.9,0.2,-0.69,-0.22,0.52,-0.32
2022-12-08 20:11:58.7580,-0.53,0.75,-1.22,-0.26,0.63,-0.33
2022-12-08 20:11:58.7680,-0.24,1.29,-1.58,-0.3,0.65,-0.33
2022-12-08 20:11:58.7780,-0.01,1.68,-1.89,-0.3,0.59,-0.3
2022-12-08 20:11:58.7880,0.05,2.08,-2.13,-0.31,0.46,-0.25
2022-12-08 20:11:58.7980,0.08,2.42,-2.27,-0.3,0.31,-0.2
2022-12-08 20:11:58.8080,0.12,2.72,-2.49,-0.27,0.19,-0.14
2022-12-08 20:11:58.8180,0.2,2.99,-2.58,-0.25,0.1,-0.11
2022-12-08 20:11:58.8280,0.33,3.17,-2.69,-0.25,0.05,-0.09
2022-12-08 20:11:58.8380,0.48,3.21,-2.57,-0.23,0.02,-0.04
2022-12-08 20:11:58.8480,0.39,3.16,-2.35,-0.17,0.02,0.02
2022-12-08 20:11:58.8580,0.07,3.01,-2.2,-0.12,0.04,0.05
2022-12-08 20:11:58.8680,-0.25,2.82,-1.91,-0.1,0.03,0.07
2022-12-08 20:11:58.8780,-0.54,2.63,-1.51,-0.12,0.05,0.09
2022-12-08 20:11:58.8880,-0.7,2.43,-1.35,-0.16,0.07,0.1
2022-12-08 20:11:58.8980,-0.82,2.14,-1.18,-0.2,0.05,0.11
2022-12-08 20:11:58.9080,-1.03,1.79,-0.65,-0.23,0.01,0.12
2022-12-08 20:11:58.9180,-1.11,1.6,-0.14,-0.25,-0.02,0.1
2022-12-08 20:11:58.9280,-1.12,1.53,0.26,-0.26,-0.05,0.06
2022-12-08 20:11:58.9380,-0.98,1.48,0.61,-0.23,-0.06,0.02
2022-12-08 20:11:58.9480,-0.74,1.48,0.88,-0.18,-0.07,-0.01
2022-12-08 20:11:58.9570,-0.51,1.51,1.06,-0.14,-0.06,-0.02
2022-12-08 20:11:58.9680,-0.38,1.57,1.07,-0.09,-0.05,-0.0
2022-12-08 20:11:58.9770,-0.38,1.6,1.16,-0.03,-0.03,0.02
2022-12-08 20:11:58.9870,-0.45,1.46,1.25,0.02,-0.02,0.05
2022-12-08 20:11:58.9970,-0.58,1.09,1.45,0.04,0.01,0.07
2022-12-08 20:11:59.0070,-0.86,-0.25,2.16,0.05,0.01,0.06
2022-12-08 20:11:59.0170,-0.92,-0.77,2.43,0.04,0.09,0.06
2022-12-08 20:11:59.0270,-0.93,-0.92,2.62,0.02,0.17,0.07
2022-12-08 20:11:59.0370,-0.93,-0.92,2.62,0.01,0.2,0.04
2022-12-08 20:11:59.0470,-1.04,-1.12,3.11,0.05,0.18,-0.04
2022-12-08 20:11:59.0570,-1.15,-1.28,3.41,0.08,0.23,-0.12
2022-12-08 20:11:59.0670,-1.1,-1.4,3.24,0.17,0.28,-0.16
2022-12-08 20:11:59.0770,-1.12,-2.24,3.28,0.25,0.33,-0.08
2022-12-08 20:11:59.0870,-1.56,-2.79,3.44,0.27,0.28,-0.01
2022-12-08 20:11:59.0970,-1.85,-2.93,3.46,0.23,0.25,0.0
2022-12-08 20:11:59.1070,-1.66,-3.01,2.92,0.16,0.25,0.01
2022-12-08 20:11:59.1160,-1.25,-2.9,2.62,0.09,0.23,0.01
2022-12-08 20:11:59.1260,-0.68,-1.98,1.88,0.03,0.19,-0.1
2022-12-08 20:11:59.1360,-0.68,-1.98,1.88,-0.04,0.15,-0.2
2022-12-08 20:11:59.1470,-0.19,-1.16,1.31,-0.01,0.14,-0.27
2022-12-08 20:11:59.1560,0.34,-0.51,0.65,0.09,0.14,-0.29
2022-12-08 20:11:59.1660,0.72,-0.08,-0.07,0.21,0.08,-0.27
2022-12-08 20:11:59.1760,0.84,0.56,-1.18,0.31,-0.01,-0.18
2022-12-08 20:11:59.1860,0.84,0.56,-1.18,0.38,-0.06,-0.03
2022-12-08 20:11:59.1960,0.81,0.46,-1.86,0.38,-0.05,0.14
2022-12-08 20:11:59.2060,0.72,0.26,-2.49,0.31,-0.02,0.28
2022-12-08 20:11:59.2160,0.45,-0.03,-2.58,0.21,0.01,0.34
2022-12-08 20:11:59.2260,0.09,-1.07,-1.75,0.12,0.07,0.36
2022-12-08 20:11:59.2360,0.09,-1.07,-1.75,0.03,0.12,0.34
2022-12-08 20:11:59.2460,0.07,-1.47,-1.08,-0.03,0.14,0.27
2022-12-08 20:11:59.2560,-0.04,-1.6,-0.44,-0.02,0.12,0.18
2022-12-08 20:11:59.2660,-0.11,-1.74,0.15,0.01,0.11,0.1
2022-12-08 20:11:59.2760,-0.03,-1.32,0.46,0.03,0.1,0.03
2022-12-08 20:11:59.2860,0.19,-1.32,0.46,0.05,0.12,-0.03
2022-12-08 20:11:59.2960,0.88,-0.29,-0.25,0.07,0.14,-0.07
2022-12-08 20:11:59.3060,0.88,-0.29,-0.25,0.1,0.13,-0.1
2022-12-08 20:11:59.3160,1.18,0.33,-0.59,0.1,0.06,-0.1
2022-12-08 20:11:59.3260,1.4,0.86,-0.91,0.11,-0.02,-0.11
2022-12-08 20:11:59.3350,1.63,1.24,-1.31,0.13,-0.11,-0.1
2022-12-08 20:11:59.3450,1.66,1.51,-1.5,0.13,-0.18,-0.1
2022-12-08 20:11:59.3550,1.63,1.68,-1.79,0.12,-0.24,-0.09
2022-12-08 20:11:59.3650,1.46,1.89,-1.97,0.1,-0.3,-0.09
2022-12-08 20:11:59.3750,1.2,2.09,-2.03,0.09,-0.32,-0.08
2022-12-08 20:11:59.3850,0.86,2.13,-2.05,0.08,-0.34,-0.04
2022-12-08 20:11:59.3950,0.48,2.12,-2.02,0.05,-0.31,0.0
2022-12-08 20:11:59.4050,0.11,1.97,-1.99,-0.02,-0.26,0.06
2022-12-08 20:11:59.4150,-0.16,1.82,-1.93,-0.07,-0.23,0.1
2022-12-08 20:11:59.4250,-0.39,1.67,-1.65,-0.11,-0.19,0.11
2022-12-08 20:11:59.4350,-0.51,1.52,-1.48,-0.15,-0.13,0.1
2022-12-08 20:11:59.4450,-0.45,1.43,-1.46,-0.21,-0.08,0.09
2022-12-08 20:11:59.4550,-0.29,1.5,-1.48,-0.25,-0.07,0.08
2022-12-08 20:11:59.4650,-0.09,1.62,-1.45,-0.26,-0.07,0.07
2022-12-08 20:11:59.4750,0.11,1.71,-1.5,-0.27,-0.08,0.06
2022-12-08 20:11:59.4850,0.23,1.75,-1.42,-0.29,-0.1,0.05
2022-12-08 20:11:59.4950,0.21,1.56,-1.14,-0.29,-0.15,0.06
2022-12-08 20:11:59.5050,0.2,1.29,-0.59,-0.26,-0.17,0.07
2022-12-08 20:11:59.5150,0.18,0.99,0.08,-0.2,-0.12,0.08
2022-12-08 20:11:59.5240,0.23,0.75,0.47,-0.18,0.01,0.08
2022-12-08 20:11:59.5340,0.36,0.52,0.77,-0.19,0.15,0.07
2022-12-08 20:11:59.5450,0.27,0.41,1.04,-0.21,0.22,0.06
2022-12-08 20:11:59.5550,0.0,0.26,1.45,-0.24,0.24,0.04
2022-12-08 20:11:59.5650,-0.16,-0.29,1.7,-0.3,0.22,0.03
2022-12-08 20:11:59.5750,-0.15,-1.33,2.82,-0.32,0.15,0.06
2022-12-08 20:11:59.5850,-0.15,-1.33,2.82,-0.32,0.07,0.1
2022-12-08 20:11:59.5940,0.06,-1.56,3.36,-0.25,0.04,0.13
2022-12-08 20:11:59.6040,0.35,-1.71,3.77,-0.16,0.05,0.17
2022-12-08 20:11:59.6140,0.73,-1.69,3.98,-0.03,0.05,0.24
2022-12-08 20:11:59.6240,0.8,-1.73,4.47,0.13,0.06,0.35
2022-12-08 20:11:59.6340,0.65,-2.2,4.92,0.24,0.08,0.39
2022-12-08 20:11:59.6440,0.52,-2.81,5.15,0.28,0.13,0.32
2022-12-08 20:11:59.6540,0.52,-3.34,4.5,0.28,0.13,0.18
2022-12-08 20:11:59.6640,0.42,-3.59,3.41,0.22,0.06,0.03
2022-12-08 20:11:59.6740,0.3,-3.56,2.44,0.13,-0.07,-0.1
2022-12-08 20:11:59.6840,0.36,-2.25,1.51,0.12,-0.24,-0.2
2022-12-08 20:11:59.6940,0.36,-2.25,1.51,0.22,-0.34,-0.27
2022-12-08 20:11:59.7040,0.44,-1.33,0.79,0.36,-0.29,-0.31
2022-12-08 20:11:59.7140,0.44,-0.63,-0.51,0.42,-0.23,-0.31
2022-12-08 20:11:59.7230,0.27,-0.37,-1.5,0.42,-0.18,-0.25
2022-12-08 20:11:59.7340,0.02,-0.19,-2.16,0.38,-0.13,-0.15
2022-12-08 20:11:59.7490,-0.75,-0.37,-3.18,0.29,-0.13,-0.02
2022-12-08 20:11:59.7580,-1.17,-0.68,-3.26,0.17,-0.13,0.09
2022-12-08 20:11:59.7680,-1.63,-0.99,-3.01,0.06,-0.18,0.16
2022-12-08 20:11:59.7730,-1.63,-0.99,-3.01,-0.05,-0.23,0.2
2022-12-08 20:11:59.7830,-1.91,-1.14,-2.75,-0.13,-0.27,0.19
2022-12-08 20:11:59.7930,-1.89,-1.1,-2.44,-0.19,-0.29,0.16
2022-12-08 20:11:59.8030,-1.71,-0.92,-1.77,-0.21,-0.25,0.11
2022-12-08 20:11:59.8130,-1.71,-0.92,-1.77,-0.18,-0.14,0.04
2022-12-08 20:11:59.8230,-1.6,-0.75,-1.57,-0.15,-0.02,-0.03
2022-12-08 20:11:59.8330,-1.45,-0.54,-1.29,-0.13,0.08,-0.07
2022-12-08 20:11:59.8430,-1.19,-0.28,-1.09,-0.11,0.14,-0.09
2022-12-08 20:11:59.8530,-0.69,0.13,-1.16,-0.09,0.18,-0.1
2022-12-08 20:11:59.8630,-0.46,0.36,-1.23,-0.08,0.15,-0.09
2022-12-08 20:11:59.8730,-0.46,0.36,-1.23,-0.1,0.08,-0.06
2022-12-08 20:11:59.8830,-0.23,0.64,-1.29,-0.12,-0.0,-0.04
2022-12-08 20:11:59.8930,0.19,1.17,-1.5,-0.15,-0.09,-0.02
2022-12-08 20:11:59.9030,0.19,1.17,-1.66,-0.17,-0.12,-0.02
2022-12-08 20:11:59.9130,0.47,1.61,-1.71,-0.2,-0.08,-0.04
2022-12-08 20:11:59.9230,0.47,1.61,-1.71,-0.21,0.01,-0.05
2022-12-08 20:11:59.9320,0.46,1.88,-1.74,-0.2,0.1,-0.06
2022-12-08 20:11:59.9430,0.38,1.94,-1.66,-0.17,0.16,-0.08
2022-12-08 20:11:59.9520,0.27,1.96,-1.53,-0.14,0.22,-0.09
2022-12-08 20:11:59.9620,0.17,2.05,-1.47,-0.14,0.26,-0.09
2022-12-08 20:11:59.9720,0.1,2.05,-1.44,-0.16,0.26,-0.1
2022-12-08 20:11:59.9830,0.06,1.97,-1.38,-0.16,0.26,-0.1
2022-12-08 20:11:59.9920,0.03,2.15,-1.29,-0.17,0.24,-0.11
2022-12-08 20:12:00.0020,0.11,2.16,-0.89,-0.18,0.18,-0.11
2022-12-08 20:12:00.0130,0.17,2.19,-0.64,-0.17,0.15,-0.1
2022-12-08 20:12:00.0220,0.28,2.11,-0.5,-0.18,0.14,-0.12
2022-12-08 20:12:00.0320,0.28,2.11,-0.5,-0.18,0.12,-0.13
2022-12-08 20:12:00.0420,0.31,2.02,-0.06,-0.15,0.13,-0.13
2022-12-08 20:12:00.0520,0.35,2.02,-0.06,-0.15,0.14,-0.12
2022-12-08 20:12:00.0620,0.32,1.98,0.02,-0.13,0.11,-0.11
2022-12-08 20:12:00.0720,0.16,1.84,0.37,-0.07,0.07,-0.08
2022-12-08 20:12:00.0820,-0.13,1.56,0.75,-0.01,0.05,-0.04
2022-12-08 20:12:00.0920,-0.41,1.23,0.98,0.04,0.06,0.0
2022-12-08 20:12:00.1020,-0.64,0.36,1.58,0.08,0.09,0.04
2022-12-08 20:12:00.1120,-0.68,-0.12,1.8,0.11,0.13,0.08
2022-12-08 20:12:00.1220,-0.68,-0.12,1.8,0.13,0.12,0.08
2022-12-08 20:12:00.1320,-0.7,-0.59,2.12,0.13,0.11,0.11
2022-12-08 20:12:00.1410,-0.74,-0.9,2.31,0.14,0.04,0.04
2022-12-08 20:12:00.1510,-0.59,-1.41,2.58,0.17,0.01,-0.03
2022-12-08 20:12:00.1610,-0.42,-1.56,2.48,0.19,0.0,-0.1
2022-12-08 20:12:00.1710,-0.21,-1.46,2.33,0.26,0.02,-0.13
2022-12-08 20:12:00.1810,-0.21,-1.73,2.27,0.41,0.05,-0.09
2022-12-08 20:12:00.1910,-0.64,-2.2,2.56,0.49,0.11,-0.06
2022-12-08 20:12:00.2010,-0.99,-2.64,2.62,0.49,0.17,-0.11
2022-12-08 20:12:00.2110,-1.03,-2.88,2.57,0.41,0.24,-0.19
2022-12-08 20:12:00.2210,-0.79,-2.85,2.51,0.29,0.35,-0.3
2022-12-08 20:12:00.2310,-0.38,-2.65,1.99,0.19,0.45,-0.4
2022-12-08 20:12:00.2410,-0.02,-1.94,1.15,0.14,0.46,-0.45
2022-12-08 20:12:00.2510,0.19,-1.23,0.71,0.18,0.45,-0.44
2022-12-08 20:12:00.2610,0.27,-0.69,0.13,0.28,0.42,-0.38
2022-12-08 20:12:00.2710,0.25,-0.37,-0.45,0.39,0.34,-0.25
2022-12-08 20:12:00.2810,0.12,-0.27,-0.84,0.43,0.26,-0.12
2022-12-08 20:12:00.2910,0.01,-0.37,-1.3,0.39,0.22,0.0
2022-12-08 20:12:00.3010,-0.09,-0.6,-1.62,0.31,0.2,0.08
2022-12-08 20:12:00.3110,-0.1,-0.99,-1.5,0.22,0.18,0.12
2022-12-08 20:12:00.3210,0.02,-1.43,-1.19,0.14,0.18,0.12
2022-12-08 20:12:00.3310,0.12,-1.9,-0.8,0.07,0.16,0.09
2022-12-08 20:12:00.3410,0.26,-2.26,-0.25,0.03,0.14,0.03
2022-12-08 20:12:00.3510,0.41,-2.36,0.26,0.03,0.14,-0.04
2022-12-08 20:12:00.3610,0.56,-2.31,0.46,0.07,0.2,-0.07
2022-12-08 20:12:00.3700,0.66,-2.03,0.47,0.11,0.21,-0.12
2022-12-08 20:12:00.3800,0.78,-1.61,0.3,0.16,0.28,-0.2
2022-12-08 20:12:00.3900,1.09,-1.78,-0.02,0.22,0.29,-0.24
2022-12-08 20:12:00.4000,1.33,-0.78,-0.5,0.25,0.29,-0.29
2022-12-08 20:12:00.4100,1.34,-0.44,-0.65,0.24,0.26,-0.31
2022-12-08 20:12:00.4200,1.31,-0.02,-1.11,0.24,0.21,-0.3
2022-12-08 20:12:00.4300,1.18,0.5,-1.42,0.24,0.14,-0.28
2022-12-08 20:12:00.4400,0.95,1.11,-1.77,0.23,0.05,-0.25
2022-12-08 20:12:00.4500,0.95,1.11,-1.77,0.22,-0.04,-0.22
2022-12-08 20:12:00.4600,0.91,1.39,-1.84,0.2,-0.1,-0.21
2022-12-08 20:12:00.4700,0.88,1.59,-1.94,0.17,-0.13,-0.19
2022-12-08 20:12:00.4800,0.81,1.7,-1.99,0.15,-0.13,-0.17
2022-12-08 20:12:00.4900,0.66,1.72,-2.0,0.11,-0.12,-0.13
2022-12-08 20:12:00.5000,0.48,1.74,-1.92,0.07,-0.12,-0.1
2022-12-08 20:12:00.5100,0.32,1.76,-1.87,0.03,-0.15,-0.09
2022-12-08 20:12:00.5200,0.22,1.72,-1.74,0.02,-0.16,-0.1
2022-12-08 20:12:00.5300,0.17,1.64,-1.52,0.03,-0.15,-0.12
2022-12-08 20:12:00.5400,0.11,1.68,-1.35,0.01,-0.09,-0.14
2022-12-08 20:12:00.5500,0.12,1.65,-1.28,-0.02,-0.06,-0.15
2022-12-08 20:12:00.5600,0.16,1.59,-1.23,-0.04,-0.01,-0.17
2022-12-08 20:12:00.5690,-0.03,1.72,-1.19,-0.08,-0.02,-0.17
2022-12-08 20:12:00.5790,-0.06,1.75,-0.98,-0.09,-0.02,-0.15
2022-12-08 20:12:00.5890,-0.01,1.74,-0.88,-0.09,0.0,-0.11
2022-12-08 20:12:00.5990,0.03,1.8,-0.78,-0.1,0.06,-0.07
2022-12-08 20:12:00.6090,0.03,1.81,-0.62,-0.13,0.11,-0.04
2022-12-08 20:12:00.6190,0.07,1.69,-0.45,-0.12,0.13,-0.01
2022-12-08 20:12:00.6290,0.1,1.45,-0.14,-0.09,0.11,0.03
2022-12-08 20:12:00.6390,0.08,1.14,0.16,-0.05,0.05,0.06
2022-12-08 20:12:00.6490,-0.07,0.29,0.75,-0.02,-0.01,0.07
2022-12-08 20:12:00.6590,-0.07,0.29,0.75,0.0,-0.04,0.07
2022-12-08 20:12:00.6690,-0.15,-0.09,0.91,0.0,-0.04,0.08
2022-12-08 20:12:00.6790,-0.15,-0.48,1.23,-0.02,-0.0,0.08
2022-12-08 20:12:00.6890,-0.01,-0.94,1.45,-0.03,0.06,0.07
2022-12-08 20:12:00.6990,-0.01,-0.94,1.45,-0.06,0.14,0.05
2022-12-08 20:12:00.7090,0.11,-1.09,1.68,-0.07,0.21,0.02
2022-12-08 20:12:00.7190,0.27,-1.1,1.82,-0.03,0.27,0.05
2022-12-08 20:12:00.7290,0.25,-1.18,2.03,0.05,0.24,0.16
2022-12-08 20:12:00.7390,-0.12,-1.57,2.47,0.12,0.12,0.25
2022-12-08 20:12:00.7490,-0.46,-2.09,2.92,0.13,-0.04,0.24
2022-12-08 20:12:00.7590,-0.45,-2.47,3.15,0.09,-0.11,0.18
2022-12-08 20:12:00.7690,-0.19,-2.65,3.01,0.06,-0.14,0.11
2022-12-08 20:12:00.7780,0.17,-2.55,2.7,0.06,-0.17,0.03
2022-12-08 20:12:00.7880,0.38,-2.08,2.34,0.11,-0.24,-0.04
2022-12-08 20:12:00.7980,0.33,-1.44,1.94,0.22,-0.24,-0.06
2022-12-08 20:12:00.8080,-0.02,-1.0,1.18,0.32,-0.19,-0.07
2022-12-08 20:12:00.8180,-0.62,-0.76,-0.14,0.35,-0.17,-0.08
2022-12-08 20:12:00.8280,-1.14,-0.81,-1.0,0.33,-0.17,-0.01
2022-12-08 20:12:00.8380,-1.46,-0.9,-1.35,0.29,-0.16,0.1
2022-12-08 20:12:00.8480,-1.83,-1.08,-1.58,0.24,-0.19,0.19
2022-12-08 20:12:00.8580,-2.18,-1.44,-1.57,0.19,-0.22,0.24
2022-12-08 20:12:00.8680,-2.29,-1.73,-1.38,0.13,-0.23,0.27
2022-12-08 20:12:00.8780,-1.86,-1.93,-0.95,0.06,-0.24,0.28
2022-12-08 20:12:00.8880,-1.86,-1.93,-0.95,-0.02,-0.25,0.24
2022-12-08 20:12:00.8980,-1.64,-1.97,-0.72,-0.07,-0.23,0.19
2022-12-08 20:12:00.9080,-1.28,-1.89,-0.61,-0.07,-0.18,0.15
2022-12-08 20:12:00.9180,-0.98,-1.63,-0.57,-0.03,-0.11,0.09
2022-12-08 20:12:00.9280,-0.81,-1.32,-0.58,-0.0,-0.04,0.03
2022-12-08 20:12:00.9380,-0.67,-1.0,-0.63,0.03,0.05,-0.02
2022-12-08 20:12:00.9480,-0.49,-0.61,-0.77,0.05,0.12,-0.05
2022-12-08 20:12:00.9580,-0.39,-0.25,-1.06,0.05,0.16,-0.06
2022-12-08 20:12:00.9670,-0.36,0.06,-1.47,0.01,0.15,-0.05
2022-12-08 20:12:00.9770,-0.37,0.37,-1.83,-0.05,0.1,-0.02
2022-12-08 20:12:00.9870,-0.35,0.61,-2.04,-0.1,0.03,0.01
2022-12-08 20:12:00.9970,-0.27,1.24,-2.42,-0.15,-0.04,0.03
2022-12-08 20:12:01.0070,-0.27,1.24,-2.42,-0.2,-0.09,0.05
2022-12-08 20:12:01.0170,-0.29,1.4,-2.43,-0.23,-0.11,0.07
2022-12-08 20:12:01.0270,-0.31,1.53,-2.32,-0.23,-0.12,0.09
2022-12-08 20:12:01.0370,-0.3,1.85,-2.06,-0.23,-0.12,0.09
2022-12-08 20:12:01.0470,-0.3,1.85,-2.06,-0.21,-0.11,0.09
2022-12-08 20:12:01.0570,-0.3,1.94,-1.96,-0.19,-0.09,0.09
2022-12-08 20:12:01.0670,-0.26,2.09,-1.87,-0.19,-0.08,0.09
2022-12-08 20:12:01.0770,-0.2,2.18,-1.87,-0.18,-0.1,0.09
2022-12-08 20:12:01.0870,-0.13,2.31,-1.82,-0.19,-0.12,0.09
2022-12-08 20:12:01.0970,-0.04,2.34,-1.81,-0.18,-0.17,0.1
2022-12-08 20:12:01.1070,0.03,2.38,-1.7,-0.18,-0.21,0.11
2022-12-08 20:12:01.1170,0.02,2.44,-1.63,-0.17,-0.2,0.12
2022-12-08 20:12:01.1270,0.03,2.46,-1.7,-0.16,-0.15,0.13
2022-12-08 20:12:01.1370,-0.05,2.55,-1.62,-0.16,-0.11,0.13
2022-12-08 20:12:01.1470,-0.17,2.43,-1.45,-0.16,-0.05,0.15
2022-12-08 20:12:01.1570,-0.32,2.38,-1.22,-0.17,-0.03,0.16
2022-12-08 20:12:01.1670,-0.43,2.17,-0.97,-0.18,-0.04,0.17
2022-12-08 20:12:01.1760,-0.61,1.74,-0.44,-0.17,-0.03,0.16
2022-12-08 20:12:01.1860,-0.56,1.12,0.07,-0.17,-0.05,0.17
2022-12-08 20:12:01.1960,-0.48,0.84,0.48,-0.16,-0.17,0.17
2022-12-08 20:12:01.2060,-0.45,0.5,1.21,-0.13,-0.28,0.21
2022-12-08 20:12:01.2160,-0.43,0.44,1.53,-0.06,-0.31,0.15
2022-12-08 20:12:01.2260,-0.24,-0.41,1.8,0.0,-0.31,0.12
2022-12-08 20:12:01.2360,-0.2,-0.37,2.28,0.05,-0.23,0.09
2022-12-08 20:12:01.2460,-0.22,-0.76,2.69,0.08,-0.13,0.05
2022-12-08 20:12:01.2560,-0.19,-1.06,2.68,0.1,-0.08,-0.01
2022-12-08 20:12:01.2660,-0.18,-1.23,2.76,0.14,-0.06,-0.06
2022-12-08 20:12:01.2760,0.01,-1.49,2.64,0.18,-0.06,-0.08
2022-12-08 20:12:01.2860,0.01,-1.49,2.64,0.23,-0.07,-0.1
2022-12-08 20:12:01.2960,0.04,-1.64,2.65,0.3,-0.07,-0.08
2022-12-08 20:12:01.3060,-0.11,-2.02,2.77,0.39,-0.07,-0.05
2022-12-08 20:12:01.3160,-0.4,-2.49,3.17,0.41,-0.04,-0.09
2022-12-08 20:12:01.3260,-0.49,-2.76,3.36,0.35,0.08,-0.19
2022-12-08 20:12:01.3360,-0.15,-2.57,2.81,0.3,0.24,-0.27
2022-12-08 20:12:01.3460,0.14,-1.76,1.59,0.26,0.34,-0.33
2022-12-08 20:12:01.3560,0.14,-1.76,1.59,0.22,0.37,-0.39
2022-12-08 20:12:01.3660,0.12,-1.14,0.99,0.18,0.37,-0.42
2022-12-08 20:12:01.3750,0.2,-0.72,0.39,0.22,0.37,-0.41
2022-12-08 20:12:01.3850,0.26,-0.32,-0.37,0.28,0.35,-0.38
2022-12-08 20:12:01.3960,0.26,-0.13,-0.91,0.32,0.34,-0.32
2022-12-08 20:12:01.4060,0.26,-0.05,-1.38,0.33,0.34,-0.22
2022-12-08 20:12:01.4150,0.12,-0.09,-1.74,0.29,0.36,-0.11
2022-12-08 20:12:01.4250,-0.1,-0.37,-2.0,0.2,0.37,-0.03
2022-12-08 20:12:01.4350,-0.46,-0.92,-1.84,0.13,0.36,0.01
2022-12-08 20:12:01.4450,-0.65,-1.52,-1.26,0.11,0.3,0.01
2022-12-08 20:12:01.4550,-0.55,-1.85,-0.63,0.09,0.22,-0.04
2022-12-08 20:12:01.4650,-0.37,-2.16,-0.01,0.08,0.17,-0.09
2022-12-08 20:12:01.4750,-0.17,-2.16,0.2,0.1,0.18,-0.14
2022-12-08 20:12:01.4850,0.15,-2.01,0.08,0.15,0.21,-0.19
2022-12-08 20:12:01.4950,0.59,-1.63,-0.21,0.19,0.23,-0.23
2022-12-08 20:12:01.5050,0.98,-1.11,-0.57,0.2,0.21,-0.26
2022-12-08 20:12:01.5150,1.25,-0.6,-0.96,0.18,0.15,-0.27
2022-12-08 20:12:01.5250,1.36,-0.04,-1.27,0.17,0.05,-0.28
2022-12-08 20:12:01.5350,1.34,0.58,-1.56,0.17,-0.07,-0.27
2022-12-08 20:12:01.5450,1.21,1.05,-1.84,0.17,-0.19,-0.25
2022-12-08 20:12:01.5550,1.0,1.39,-1.95,0.14,-0.27,-0.22
2022-12-08 20:12:01.5650,0.86,1.59,-2.13,0.12,-0.31,-0.18
2022-12-08 20:12:01.5750,0.67,1.72,-2.26,0.09,-0.32,-0.11
2022-12-08 20:12:01.5850,0.44,1.76,-2.35,0.07,-0.33,-0.04
2022-12-08 20:12:01.5950,0.12,1.79,-2.41,0.04,-0.33,0.02
2022-12-08 20:12:01.6040,-0.24,1.78,-2.4,-0.01,-0.32,0.09
2022-12-08 20:12:01.6140,-0.61,1.65,-2.41,-0.09,-0.28,0.14
2022-12-08 20:12:01.6240,-0.87,1.55,-2.33,-0.16,-0.24,0.18
2022-12-08 20:12:01.6340,-0.95,1.45,-2.01,-0.21,-0.18,0.18
2022-12-08 20:12:01.6440,-0.94,1.3,-1.75,-0.24,-0.13,0.18
2022-12-08 20:12:01.6540,-0.77,1.12,-1.38,-0.28,-0.05,0.16
2022-12-08 20:12:01.6640,-0.63,0.92,-1.21,-0.32,-0.0,0.14
2022-12-08 20:12:01.6740,-0.58,0.81,-1.06,-0.34,0.02,0.12
2022-12-08 20:12:01.6840,-0.47,0.7,-0.86,-0.35,0.04,0.12
2022-12-08 20:12:01.6940,-0.3,0.69,-0.69,-0.35,0.05,0.12
2022-12-08 20:12:01.7040,-0.11,0.76,-0.44,-0.35,0.05,0.13
2022-12-08 20:12:01.7140,0.14,0.83,-0.25,-0.33,0.05,0.13
2022-12-08 20:12:01.7240,0.38,0.95,-0.08,-0.29,0.03,0.13
2022-12-08 20:12:01.7340,0.57,1.04,0.12,-0.24,0.0,0.16
2022-12-08 20:12:01.7440,0.67,1.06,0.4,-0.2,-0.04,0.19
2022-12-08 20:12:01.7540,0.71,0.95,0.67,-0.16,-0.09,0.22
2022-12-08 20:12:01.7640,0.7,0.77,0.98,-0.11,-0.17,0.26
2022-12-08 20:12:01.7740,0.41,0.19,1.71,-0.07,-0.21,0.26
2022-12-08 20:12:01.7840,0.41,0.19,1.71,-0.07,-0.18,0.25
2022-12-08 20:12:01.7930,0.21,-0.18,1.85,-0.09,-0.16,0.21
2022-12-08 20:12:01.8030,0.08,-0.49,1.93,-0.12,-0.13,0.18
2022-12-08 20:12:01.8130,-0.03,-0.64,1.99,-0.13,-0.09,0.16
2022-12-08 20:12:01.8230,-0.09,-0.79,1.99,-0.14,-0.05,0.15
2022-12-08 20:12:01.8330,-0.09,-0.8,2.13,-0.15,0.01,0.12
2022-12-08 20:12:01.8430,0.04,-0.63,2.27,-0.14,0.11,0.09
2022-12-08 20:12:01.8530,0.18,-0.48,2.39,-0.11,0.19,0.08
2022-12-08 20:12:01.8630,0.36,-0.33,2.71,-0.04,0.24,0.06
2022-12-08 20:12:01.8730,0.5,-0.11,2.94,0.04,0.24,0.07
2022-12-08 20:12:01.8830,0.46,0.01,3.13,0.13,0.22,0.1
2022-12-08 20:12:01.8930,0.29,-0.3,3.36,0.19,0.13,0.15
2022-12-08 20:12:01.9030,-0.01,-0.42,3.64,0.2,0.01,0.15
2022-12-08 20:12:01.9130,-0.16,-0.68,3.87,0.21,-0.06,0.16
2022-12-08 20:12:01.9230,-0.14,-0.81,3.78,0.23,-0.08,0.18
2022-12-08 20:12:01.9330,-0.16,-0.94,3.28,0.26,-0.06,0.16
2022-12-08 20:12:01.9420,-0.16,-1.0,2.77,0.32,-0.04,0.11
2022-12-08 20:12:01.9530,-0.33,-0.73,2.26,0.37,0.04,0.03
2022-12-08 20:12:01.9630,-0.42,-0.79,1.38,0.37,0.11,-0.02
2022-12-08 20:12:01.9730,-0.42,-0.71,-0.59,0.36,0.14,-0.05
2022-12-08 20:12:01.9820,-0.42,-0.71,-0.59,0.34,0.12,-0.07
2022-12-08 20:12:01.9920,-0.58,-0.6,-1.21,0.31,0.09,-0.05
2022-12-08 20:12:02.0020,-0.77,-0.49,-1.55,0.27,0.07,-0.02
2022-12-08 20:12:02.0120,-1.03,-0.35,-2.18,0.22,0.05,0.02
2022-12-08 20:12:02.0220,-1.03,-0.35,-2.18,0.16,0.05,0.05
2022-12-08 20:12:02.0320,-1.11,-0.37,-2.38,0.1,0.04,0.09
2022-12-08 20:12:02.0420,-1.25,-0.51,-2.39,0.03,0.03,0.13
2022-12-08 20:12:02.0520,-1.25,-0.51,-2.39,-0.02,-0.02,0.16
2022-12-08 20:12:02.0620,-1.27,-0.62,-2.11,-0.05,-0.07,0.17
2022-12-08 20:12:02.0720,-1.17,-0.7,-1.74,-0.07,-0.11,0.18
2022-12-08 20:12:02.0820,-0.98,-0.71,-1.46,-0.06,-0.12,0.18
2022-12-08 20:12:02.0920,-0.8,-0.7,-1.25,-0.06,-0.11,0.17
2022-12-08 20:12:02.1020,-0.64,-0.64,-1.18,-0.08,-0.1,0.15
2022-12-08 20:12:02.1120,-0.4,-0.64,-0.93,-0.09,-0.07,0.12
2022-12-08 20:12:02.1220,-0.16,-0.52,-0.89,-0.09,-0.04,0.11
2022-12-08 20:12:02.1320,0.02,-0.43,-0.96,-0.09,-0.06,0.11
2022-12-08 20:12:02.1420,0.07,-0.3,-0.96,-0.09,-0.12,0.12
2022-12-08 20:12:02.1520,0.11,-0.09,-1.09,-0.09,-0.17,0.12
2022-12-08 20:12:02.1660,0.35,0.5,-1.65,-0.12,-0.2,0.12
2022-12-08 20:12:02.1720,0.35,0.5,-1.65,-0.14,-0.21,0.12
2022-12-08 20:12:02.1820,0.39,0.73,-1.85,-0.17,-0.19,0.1
2022-12-08 20:12:02.1910,0.34,1.16,-1.96,-0.17,-0.15,0.1
2022-12-08 20:12:02.2020,0.34,1.16,-1.96,-0.17,-0.11,0.09
2022-12-08 20:12:02.2110,0.05,1.31,-1.9,-0.18,-0.08,0.08
2022-12-08 20:12:02.2210,0.05,1.31,-1.9,-0.18,-0.07,0.08
2022-12-08 20:12:02.2310,-0.05,1.42,-1.87,-0.19,-0.04,0.05
2022-12-08 20:12:02.2410,-0.04,1.49,-1.91,-0.19,-0.02,0.01
2022-12-08 20:12:02.2510,0.05,1.43,-1.78,-0.19,-0.03,-0.03
2022-12-08 20:12:02.2610,0.26,1.38,-1.6,-0.18,-0.04,-0.07
2022-12-08 20:12:02.2710,0.44,1.35,-1.48,-0.18,-0.04,-0.11
2022-12-08 20:12:02.2810,0.63,1.3,-1.46,-0.18,-0.07,-0.13
2022-12-08 20:12:02.2910,0.92,1.44,-1.34,-0.16,-0.08,-0.14
2022-12-08 20:12:02.3010,0.92,1.44,-1.34,-0.17,-0.05,-0.15
2022-12-08 20:12:02.3110,0.96,1.43,-1.33,-0.17,-0.01,-0.14
2022-12-08 20:12:02.3210,0.92,1.49,-1.3,-0.19,0.01,-0.12
2022-12-08 20:12:02.3310,0.68,1.41,-1.21,-0.21,0.0,-0.09
2022-12-08 20:12:02.3410,-0.08,1.14,-0.63,-0.23,-0.03,-0.04
2022-12-08 20:12:02.3510,-0.08,1.14,-0.63,-0.25,-0.1,-0.01
2022-12-08 20:12:02.3610,-0.39,0.92,-0.11,-0.25,-0.17,0.03
2022-12-08 20:12:02.3710,-0.65,0.66,0.61,-0.24,-0.2,0.05
2022-12-08 20:12:02.3810,-0.82,0.37,1.23,-0.23,-0.22,0.06
2022-12-08 20:12:02.3900,-1.11,-0.39,2.47,-0.18,-0.27,0.09
2022-12-08 20:12:02.4000,-1.11,-0.39,2.47,-0.12,-0.31,0.11
2022-12-08 20:12:02.4100,-1.25,-0.94,3.04,-0.04,-0.33,0.1
2022-12-08 20:12:02.4200,-1.27,-1.22,3.39,0.01,-0.34,0.06
2022-12-08 20:12:02.4300,-0.96,-1.66,3.6,0.04,-0.3,0.02
2022-12-08 20:12:02.4400,-0.96,-1.66,3.6,0.08,-0.26,0.0
2022-12-08 20:12:02.4510,-0.91,-1.73,3.55,0.13,-0.24,-0.0
2022-12-08 20:12:02.4600,-1.06,-1.91,3.73,0.18,-0.23,0.02
2022-12-08 20:12:02.4700,-1.34,-2.27,4.06,0.21,-0.22,-0.0
2022-12-08 20:12:02.4800,-1.46,-2.7,4.39,0.19,-0.1,-0.08
2022-12-08 20:12:02.4900,-0.4,-2.34,3.64,0.12,0.1,-0.19
2022-12-08 20:12:02.5000,-0.4,-2.34,3.64,0.09,0.27,-0.3
2022-12-08 20:12:02.5100,-0.2,-1.91,3.35,0.1,0.39,-0.38
2022-12-08 20:12:02.5200,-0.26,-1.27,2.63,0.14,0.42,-0.42
2022-12-08 20:12:02.5300,-0.19,-0.63,1.78,0.2,0.42,-0.44
2022-12-08 20:12:02.5400,-0.06,0.07,0.81,0.27,0.37,-0.42
2022-12-08 20:12:02.5500,0.07,0.64,-0.16,0.31,0.25,-0.37
2022-12-08 20:12:02.5600,0.14,0.92,-0.75,0.38,0.14,-0.27
2022-12-08 20:12:02.5700,0.23,1.02,-1.33,0.42,0.1,-0.17
2022-12-08 20:12:02.5800,0.36,0.91,-1.92,0.39,0.11,-0.04
2022-12-08 20:12:02.5900,0.54,0.67,-2.23,0.32,0.15,0.04
2022-12-08 20:12:02.6000,0.55,0.32,-2.09,0.24,0.2,0.05
2022-12-08 20:12:02.6100,0.46,-0.28,-1.71,0.19,0.24,0.06
2022-12-08 20:12:02.6190,0.45,-1.02,-1.07,0.18,0.25,0.03
2022-12-08 20:12:02.6290,0.39,-1.52,-0.45,0.16,0.27,-0.05
2022-12-08 20:12:02.6390,0.38,-1.84,-0.08,0.16,0.28,-0.14
2022-12-08 20:12:02.6490,0.46,-1.84,0.28,0.17,0.27,-0.2
2022-12-08 20:12:02.6590,0.46,-1.84,0.28,0.23,0.25,-0.24
2022-12-08 20:12:02.6690,0.52,-1.56,0.11,0.29,0.23,-0.27
2022-12-08 20:12:02.6790,0.73,-1.17,-0.32,0.33,0.21,-0.28
2022-12-08 20:12:02.6890,1.03,-0.67,-0.9,0.35,0.2,-0.28
2022-12-08 20:12:02.6990,1.25,-0.23,-1.43,0.35,0.16,-0.27
2022-12-08 20:12:02.7090,1.26,0.2,-1.88,0.34,0.11,-0.26
2022-12-08 20:12:02.7190,1.1,0.48,-2.21,0.32,0.04,-0.23
2022-12-08 20:12:02.7290,0.91,0.71,-2.38,0.29,-0.02,-0.19
2022-12-08 20:12:02.7390,0.7,0.94,-2.47,0.27,-0.09,-0.15
2022-12-08 20:12:02.7490,0.39,1.05,-2.42,0.25,-0.14,-0.1
2022-12-08 20:12:02.7590,0.12,1.13,-2.34,0.22,-0.18,-0.06
2022-12-08 20:12:02.7690,-0.12,1.13,-2.23,0.17,-0.21,-0.01
2022-12-08 20:12:02.7790,-0.34,1.14,-2.12,0.1,-0.21,0.03
2022-12-08 20:12:02.7890,-0.52,1.09,-2.03,0.04,-0.23,0.07
2022-12-08 20:12:02.7980,-0.68,1.2,-1.81,-0.02,-0.24,0.08
2022-12-08 20:12:02.8080,-0.71,1.29,-1.6,-0.07,-0.22,0.08
2022-12-08 20:12:02.8180,-0.62,1.33,-1.52,-0.12,-0.18,0.08
2022-12-08 20:12:02.8290,-0.49,1.41,-1.41,-0.13,-0.14,0.08
2022-12-08 20:12:02.8380,-0.36,1.43,-1.17,-0.13,-0.1,0.08
2022-12-08 20:12:02.8490,-0.2,1.41,-0.95,-0.13,-0.07,0.09
2022-12-08 20:12:02.8580,-0.05,1.4,-0.78,-0.12,-0.06,0.12
2022-12-08 20:12:02.8680,0.01,1.3,-0.65,-0.11,-0.06,0.14
2022-12-08 20:12:02.8780,0.04,1.14,-0.48,-0.11,-0.07,0.17
2022-12-08 20:12:02.8880,0.07,0.95,-0.28,-0.11,-0.08,0.2
2022-12-08 20:12:02.8980,0.1,0.69,-0.03,-0.1,-0.11,0.22
2022-12-08 20:12:02.9080,0.14,0.4,0.27,-0.1,-0.13,0.21
2022-12-08 20:12:02.9180,0.11,0.11,0.5,-0.12,-0.14,0.22
2022-12-08 20:12:02.9280,0.13,-0.21,0.87,-0.11,-0.13,0.22
2022-12-08 20:12:02.9380,0.11,-0.36,1.07,-0.1,-0.12,0.2
2022-12-08 20:12:02.9480,0.06,-0.59,1.32,-0.09,-0.08,0.19
2022-12-08 20:12:02.9580,0.05,-0.76,1.54,-0.09,-0.01,0.18
2022-12-08 20:12:02.9680,0.06,-0.87,1.63,-0.09,0.05,0.17
2022-12-08 20:12:02.9780,0.04,-0.96,1.8,-0.08,0.1,0.17
2022-12-08 20:12:02.9880,0.03,-1.01,1.97,-0.06,0.1,0.17
2022-12-08 20:12:02.9980,0.12,-1.06,2.11,-0.02,0.09,0.17
2022-12-08 20:12:03.0080,0.25,-1.11,2.2,0.03,0.05,0.17
2022-12-08 20:12:03.0180,0.33,-1.26,2.22,0.1,-0.0,0.2
2022-12-08 20:12:03.0270,0.24,-1.51,2.19,0.13,-0.03,0.2
2022-12-08 20:12:03.0370,0.03,-1.83,2.03,0.09,-0.02,0.15
2022-12-08 20:12:03.0480,-0.11,-1.94,1.73,0.02,0.05,0.07
2022-12-08 20:12:03.0570,0.04,-1.74,0.93,-0.02,0.14,0.03
2022-12-08 20:12:03.0680,-0.02,-1.53,0.87,-0.04,0.18,-0.0
2022-12-08 20:12:03.0770,-0.02,-1.53,0.87,-0.02,0.17,-0.03
2022-12-08 20:12:03.0870,0.02,-1.29,0.8,0.03,0.13,-0.04
2022-12-08 20:12:03.0970,0.19,-1.01,0.64,0.08,0.07,-0.02
2022-12-08 20:12:03.1070,0.29,-0.79,0.37,0.13,-0.02,0.01
2022-12-08 20:12:03.1170,0.27,-0.58,0.06,0.15,-0.16,0.07
2022-12-08 20:12:03.1270,0.19,-0.48,-0.55,0.18,-0.28,0.13
2022-12-08 20:12:03.1370,0.03,-0.3,-0.89,0.18,-0.39,0.16
2022-12-08 20:12:03.1470,0.02,-0.18,-1.27,0.15,-0.44,0.19
2022-12-08 20:12:03.1570,0.0,-0.08,-1.6,0.09,-0.44,0.22
2022-12-08 20:12:03.1670,-0.13,-0.01,-1.67,0.05,-0.42,0.25
2022-12-08 20:12:03.1770,-0.37,-0.03,-1.65,0.01,-0.41,0.24
2022-12-08 20:12:03.1860,-0.37,-0.03,-1.65,-0.03,-0.41,0.24
2022-12-08 20:12:03.1970,-0.72,-0.06,-1.52,-0.07,-0.37,0.24
2022-12-08 20:12:03.2070,-1.03,-0.28,-1.37,-0.11,-0.32,0.24
2022-12-08 20:12:03.2160,-1.32,-0.33,-1.12,-0.13,-0.26,0.22
2022-12-08 20:12:03.2270,-1.48,-0.4,-0.86,-0.15,-0.2,0.21
2022-12-08 20:12:03.2360,-1.58,-0.5,-0.55,-0.16,-0.14,0.2
2022-12-08 20:12:03.2470,-1.6,-0.5589873844385147,0.05,-0.18,-0.08,0.18
2022-12-08 20:12:03.2560,-1.49,-0.56,0.05,-0.2,-0.02,0.12
2022-12-08 20:12:03.2660,-1.27,-0.51,0.17,-0.19,0.02,0.07
2022-12-08 20:12:03.2760,-0.98,-0.41,0.22,-0.17,0.07,0.02
2022-12-08 20:12:03.2860,-0.67,-0.22,0.07,-0.15,0.1,-0.01
2022-12-08 20:12:03.2960,-0.39,0.03,-0.16,-0.14,0.1,-0.03
2022-12-08 20:12:03.3060,-0.12,0.3,-0.48,-0.13,0.09,-0.04
2022-12-08 20:12:03.3160,0.08,0.62,-0.78,-0.13,0.08,-0.04
2022-12-08 20:12:03.3260,0.23,0.91,-1.07,-0.13,0.11,-0.03
2022-12-08 20:12:03.3360,0.27,1.17,-1.32,-0.14,0.11,-0.03
2022-12-08 20:12:03.3460,0.32,1.33,-1.54,-0.15,0.12,-0.03
2022-12-08 20:12:03.3560,0.28,1.55,-1.59,-0.16,0.15,-0.02
2022-12-08 20:12:03.3660,0.22,1.71,-1.76,-0.18,0.18,-0.0
2022-12-08 20:12:03.3760,0.12,1.76,-1.84,-0.21,0.19,0.01
2022-12-08 20:12:03.3860,0.03,1.87,-1.84,-0.24,0.18,0.02
2022-12-08 20:12:03.3960,0.0,1.96,-1.83,-0.25,0.19,0.04
2022-12-08 20:12:03.4060,-0.04,2.05,-1.82,-0.27,0.16,0.05
2022-12-08 20:12:03.4160,0.04,1.95,-1.67,-0.26,0.14,0.06
2022-12-08 20:12:03.4260,0.01,2.12,-1.56,-0.23,0.12,0.05
2022-12-08 20:12:03.4360,-0.09,2.08,-1.51,-0.23,0.06,0.06
2022-12-08 20:12:03.4450,-0.07,1.94,-1.23,-0.21,0.0,0.1
2022-12-08 20:12:03.4550,-0.06,1.88,-0.94,-0.16,-0.06,0.12
2022-12-08 20:12:03.4650,-0.13,1.8,-0.79,-0.13,-0.11,0.13
2022-12-08 20:12:03.4750,-0.09,1.59,-0.46,-0.08,-0.15,0.15
2022-12-08 20:12:03.4850,-0.03,1.41,-0.18,-0.03,-0.16,0.17
2022-12-08 20:12:03.4950,-0.02,1.0,0.06,-0.0,-0.14,0.17
2022-12-08 20:12:03.5050,-0.16,0.62,0.36,-0.01,-0.13,0.14
2022-12-08 20:12:03.5150,-0.23,0.18,0.66,-0.0,-0.14,0.11
2022-12-08 20:12:03.5250,-0.21,-0.22,0.94,0.02,-0.14,0.08
2022-12-08 20:12:03.5350,-0.09,-0.56,1.04,0.05,-0.14,0.04
2022-12-08 20:12:03.5450,-0.02,-0.64,1.07,0.08,-0.11,-0.01
2022-12-08 20:12:03.5550,-0.03,-0.61,0.97,0.1,-0.05,-0.05
2022-12-08 20:12:03.5650,-0.21,-0.65,0.81,0.1,0.03,-0.08
2022-12-08 20:12:03.5750,-0.5,-0.66,0.63,0.08,0.07,-0.1
2022-12-08 20:12:03.5850,-0.79,-0.67,0.63,0.07,0.09,-0.12
2022-12-08 20:12:03.5940,-0.97,-0.72,0.64,0.05,0.08,-0.14
2022-12-08 20:12:03.6050,-1.02,-0.79,0.71,0.02,0.06,-0.14
2022-12-08 20:12:03.6150,-0.99,-0.82,0.82,-0.02,0.03,-0.13
2022-12-08 20:12:03.6250,-0.95,-0.94,0.95,-0.05,0.01,-0.13
2022-12-08 20:12:03.6340,-0.86,-1.02,1.1,-0.05,-0.01,-0.11
2022-12-08 20:12:03.6450,-0.83,-1.09,1.42,-0.01,0.0,-0.04
2022-12-08 20:12:03.6540,-1.0,-1.44,1.93,0.04,0.04,0.02
2022-12-08 20:12:03.6640,-1.33,-1.87,2.42,-0.0,0.08,-0.01
2022-12-08 20:12:03.6740,-1.34,-2.17,2.82,-0.08,0.18,-0.1
2022-12-08 20:12:03.6840,-0.76,-1.97,2.61,-0.12,0.32,-0.2
2022-12-08 20:12:03.6940,-0.12,-1.77,2.33,-0.1,0.44,-0.3
2022-12-08 20:12:03.7040,0.18,-1.3,2.0,-0.04,0.51,-0.4
2022-12-08 20:12:03.7140,0.31,-0.67,1.54,0.01,0.5,-0.48
2022-12-08 20:12:03.7240,0.51,-0.19,1.13,0.06,0.48,-0.49
2022-12-08 20:12:03.7340,0.63,0.32,0.44,0.1,0.42,-0.48
2022-12-08 20:12:03.7440,0.67,0.61,-0.19,0.09,0.34,-0.41
2022-12-08 20:12:03.7540,0.64,0.85,-0.67,0.09,0.25,-0.32
2022-12-08 20:12:03.7640,0.52,1.0,-1.05,0.08,0.2,-0.22
2022-12-08 20:12:03.7740,0.45,0.89,-1.4,0.04,0.15,-0.1
2022-12-08 20:12:03.7840,0.32,0.63,-1.29,0.01,0.11,-0.02
2022-12-08 20:12:03.7940,0.11,0.28,-0.96,0.01,0.13,0.0
2022-12-08 20:12:03.8040,0.01,-0.05,-0.7,0.02,0.12,0.02
2022-12-08 20:12:03.8140,0.02,-0.51,-0.13,0.07,0.11,0.0
2022-12-08 20:12:03.8240,-0.01,-0.82,0.35,0.08,0.1,-0.03
2022-12-08 20:12:03.8340,0.04,-1.09,0.58,0.09,0.1,-0.08
2022-12-08 20:12:03.8440,0.03,-1.17,0.63,0.09,0.1,-0.12
2022-12-08 20:12:03.8530,0.11,-1.15,0.5,0.1,0.11,-0.16
2022-12-08 20:12:03.8630,0.28,-1.02,0.26,0.12,0.13,-0.19
2022-12-08 20:12:03.8730,0.47,-0.74,0.0,0.14,0.15,-0.22
2022-12-08 20:12:03.8830,0.67,-0.43,-0.18,0.16,0.16,-0.24
2022-12-08 20:12:03.8930,0.83,-0.13,-0.44,0.16,0.14,-0.25
2022-12-08 20:12:03.9030,0.9,0.12,-0.71,0.16,0.06,-0.26
2022-12-08 20:12:03.9130,0.9,0.29,-0.81,0.18,-0.02,-0.26
2022-12-08 20:12:03.9230,0.84,0.5,-1.06,0.19,-0.09,-0.24
2022-12-08 20:12:03.9330,0.79,0.56,-1.26,0.18,-0.14,-0.22
2022-12-08 20:12:03.9430,0.7,0.73,-1.36,0.16,-0.15,-0.18
2022-12-08 20:12:03.9530,0.54,0.9,-1.55,0.13,-0.16,-0.16
2022-12-08 20:12:03.9630,0.33,0.97,-1.67,0.1,-0.16,-0.14
2022-12-08 20:12:03.9730,0.14,1.09,-1.77,0.08,-0.15,-0.1
2022-12-08 20:12:03.9830,-0.07,1.13,-1.8,0.06,-0.13,-0.07
2022-12-08 20:12:03.9930,-0.27,1.15,-1.78,0.03,-0.1,-0.06
2022-12-08 20:12:04.0030,-0.39,1.2,-1.81,-0.01,-0.07,-0.04
2022-12-08 20:12:04.0130,-0.47,1.33,-1.79,-0.05,-0.04,-0.02
2022-12-08 20:12:04.0230,-0.52,1.3,-1.8,-0.1,-0.01,-0.02
2022-12-08 20:12:04.0330,-0.47,1.43,-1.85,-0.13,0.03,-0.01
2022-12-08 20:12:04.0430,-0.39,1.61,-1.84,-0.15,0.04,-0.0
2022-12-08 20:12:04.0520,-0.28,1.72,-1.8,-0.16,0.06,0.01
2022-12-08 20:12:04.0620,-0.2,1.85,-1.82,-0.16,0.06,0.03
2022-12-08 20:12:04.0720,-0.14,2.03,-1.73,-0.17,0.07,0.07
2022-12-08 20:12:04.0820,-0.14,2.03,-1.73,-0.2,0.06,0.11
2022-12-08 20:12:04.0920,-0.14,2.01,-1.58,-0.21,0.05,0.14
2022-12-08 20:12:04.1020,-0.14,1.93,-1.33,-0.22,0.01,0.15
2022-12-08 20:12:04.1120,-0.04,1.72,-1.03,-0.21,-0.05,0.17
2022-12-08 20:12:04.1220,0.08,1.5,-0.36488321363925935,-0.2,-0.11,0.18
2022-12-08 20:12:04.1320,0.18,1.38,-0.37,-0.19,-0.18,0.21
2022-12-08 20:12:04.1420,0.27,1.12,0.03,-0.16,-0.22,0.25
2022-12-08 20:12:04.1520,0.27,0.87,0.45,-0.14,-0.23,0.27
2022-12-08 20:12:04.1620,0.21,0.58,0.76,-0.14,-0.18,0.27
2022-12-08 20:12:04.1720,0.18,0.21,1.13,-0.15,-0.09,0.26
2022-12-08 20:12:04.1820,0.19,-0.08,1.41,-0.17,0.01,0.23
2022-12-08 20:12:04.1920,0.14,-0.39,1.7,-0.18,0.09,0.2
2022-12-08 20:12:04.2020,0.0,-0.57,1.98,-0.18,0.16,0.17
2022-12-08 20:12:04.2120,-0.04,-0.81,2.37,-0.17,0.24,0.15
2022-12-08 20:12:04.2220,-0.04,-0.93,2.68,-0.17,0.32,0.14
2022-12-08 20:12:04.2320,0.06,-0.95,3.03,-0.15,0.37,0.15
2022-12-08 20:12:04.2420,0.19,-0.93,3.44,-0.08,0.4,0.19
2022-12-08 20:12:04.2510,0.26,-0.93,3.88,-0.0,0.32,0.26
2022-12-08 20:12:04.2610,0.25,-1.27,4.59,0.1,0.17,0.32
2022-12-08 20:12:04.2710,-0.04,-1.74,5.52,0.15,0.11,0.32
2022-12-08 20:12:04.2820,-0.06,-2.11,5.3,0.13,0.12,0.26
2022-12-08 20:12:04.2910,-0.06,-2.11,5.3,0.15,-0.01,0.2
2022-12-08 20:12:04.3010,0.3,-2.01,3.99,0.26,-0.15,0.08
2022-12-08 20:12:04.3110,0.3,-2.01,3.99,0.35,-0.21,-0.03
2022-12-08 20:12:04.3210,0.48,-1.05,2.34,0.4,-0.22,-0.12
2022-12-08 20:12:04.3310,0.51,-0.45,1.1,0.48,-0.2,-0.15
2022-12-08 20:12:04.3410,0.44,-0.1,-0.34,0.55,-0.16,-0.12
2022-12-08 20:12:04.3510,0.35,-0.01,-1.39,0.58,-0.16,-0.04
2022-12-08 20:12:04.3610,0.04,0.01,-2.0,0.55,-0.19,0.04
2022-12-08 20:12:04.3710,-0.42,-0.22,-2.14,0.5,-0.23,0.12
2022-12-08 20:12:04.3810,-0.88,-0.53,-2.18,0.45,-0.25,0.19
2022-12-08 20:12:04.3910,-1.28,-0.78,-2.06,0.38,-0.27,0.21
2022-12-08 20:12:04.4010,-1.72,-1.16,-1.76,0.3,-0.27,0.19
2022-12-08 20:12:04.4110,-1.97,-1.45,-1.41,0.2,-0.22,0.17
2022-12-08 20:12:04.4210,-2.02,-1.59,-1.09,0.09,-0.16,0.14
2022-12-08 20:12:04.4310,-1.9,-1.66,-0.6,0.05,-0.09,0.13
2022-12-08 20:12:04.4410,-1.66,-1.65,-0.2,0.04,-0.02,0.1
2022-12-08 20:12:04.4500,-1.4,-1.68,-0.08,0.08,0.06,0.07
2022-12-08 20:12:04.4600,-1.11,-1.48,-0.03,0.13,0.14,0.06
2022-12-08 20:12:04.4700,-0.78,-1.23,-0.27,0.16,0.2,0.05
2022-12-08 20:12:04.4800,-0.41,-1.01,-0.66,0.16,0.2,0.04
2022-12-08 20:12:04.4900,-0.1,-0.68,-1.06,0.15,0.16,0.03
2022-12-08 20:12:04.5000,0.14,-0.5,-1.39,0.12,0.1,0.04
2022-12-08 20:12:04.5100,0.37,-0.26,-1.8,0.08,0.04,0.04
2022-12-08 20:12:04.5200,0.53,0.02,-2.11,0.02,-0.03,0.03
2022-12-08 20:12:04.5300,0.59,0.31,-2.38,-0.03,-0.08,0.02
2022-12-08 20:12:04.5400,0.64,0.61,-2.58,-0.07,-0.12,0.03
2022-12-08 20:12:04.5500,0.53,1.05,-2.68,-0.1,-0.12,0.04
2022-12-08 20:12:04.5600,0.53,1.05,-2.68,-0.12,-0.11,0.06
2022-12-08 20:12:04.5700,0.42,1.19,-2.76,-0.13,-0.1,0.08
2022-12-08 20:12:04.5800,0.26,1.4,-2.66,-0.14,-0.09,0.09
2022-12-08 20:12:04.5900,0.18,1.42,-2.63,-0.16,-0.1,0.08
2022-12-08 20:12:04.6000,0.18,1.48,-2.51,-0.15,-0.07,0.07
2022-12-08 20:12:04.6100,0.19,1.64,-2.51,-0.16,-0.06,0.05
2022-12-08 20:12:04.6200,0.23,1.63,-2.47,-0.18,-0.03,0.05
2022-12-08 20:12:04.6300,0.26,1.77,-2.5,-0.21,-0.07,0.04
2022-12-08 20:12:04.6400,0.3,1.9,-2.43,-0.2,-0.09,0.05
2022-12-08 20:12:04.6500,0.36,2.05,-2.35,-0.2,-0.13,0.09
2022-12-08 20:12:04.6590,0.4,2.09,-2.18,-0.19,-0.19,0.1
2022-12-08 20:12:04.6690,0.4,2.07,-1.85,-0.17,-0.17,0.09
2022-12-08 20:12:04.6790,0.42,2.07,-1.91,-0.17,-0.2,0.1
2022-12-08 20:12:04.6890,0.46,2.11,-1.49,-0.16,-0.24,0.13
2022-12-08 20:12:04.6990,0.42,1.97,-1.12,-0.13,-0.27,0.15
2022-12-08 20:12:04.7090,0.39,1.68,-0.91,-0.13,-0.29,0.16
2022-12-08 20:12:04.7190,0.39,1.69,-0.63,-0.16,-0.33,0.16
2022-12-08 20:12:04.7290,0.28,1.37,-0.05,-0.15,-0.35,0.15
2022-12-08 20:12:04.7390,0.2,1.02,0.61,-0.13,-0.3,0.12
2022-12-08 20:12:04.7490,0.14,0.6,1.12,-0.1,-0.22,0.1
2022-12-08 20:12:04.7590,0.03,0.37,1.68,-0.07,-0.13,0.12
2022-12-08 20:12:04.7690,-0.14,0.28,2.23,-0.01,-0.07,0.07
2022-12-08 20:12:04.7790,-0.32,-0.16,2.94,0.05,0.09,0.02
2022-12-08 20:12:04.7890,-0.37,-0.45,3.08,0.11,0.21,-0.03
2022-12-08 20:12:04.7990,-0.42,-0.45,3.48,0.16,0.32,-0.09
2022-12-08 20:12:04.8090,-0.43,-1.04,3.63,0.18,0.37,-0.17
2022-12-08 20:12:04.8180,-0.33,-1.07,3.64,0.19,0.37,-0.28
2022-12-08 20:12:04.8280,-0.25,-1.1,3.59,0.24,0.36,-0.36
2022-12-08 20:12:04.8380,-0.2,-1.06,3.37,0.33,0.37,-0.39
2022-12-08 20:12:04.8490,-0.29,-1.08,3.21,0.41,0.4,-0.36
2022-12-08 20:12:04.8580,-0.6,-1.33,3.12,0.44,0.39,-0.31
2022-12-08 20:12:04.8680,-1.1,-1.87,3.31,0.45,0.39,-0.27
2022-12-08 20:12:04.8780,-1.42,-2.44,3.51,0.39,0.48,-0.28
2022-12-08 20:12:04.8880,-1.3,-2.5,3.1,0.29,0.55,-0.32
2022-12-08 20:12:04.8980,-1.02,-2.33,2.79,0.25,0.58,-0.38
2022-12-08 20:12:04.9080,-0.83,-2.27,2.6,0.25,0.61,-0.45
2022-12-08 20:12:04.9180,-0.49,-1.67,1.72,0.25,0.58,-0.52
2022-12-08 20:12:04.9280,-0.05,-0.91,1.05,0.27,0.53,-0.57
2022-12-08 20:12:04.9380,0.41,-0.26,0.23,0.34,0.49,-0.58
2022-12-08 20:12:04.9480,0.69,0.21,-0.73,0.4,0.43,-0.53
2022-12-08 20:12:04.9580,0.72,0.52,-1.42,0.42,0.33,-0.43
2022-12-08 20:12:04.9680,0.58,0.67,-1.94,0.39,0.23,-0.27
2022-12-08 20:12:04.9780,0.38,0.55,-2.38,0.31,0.17,-0.1
2022-12-08 20:12:04.9880,0.18,0.23,-2.6,0.21,0.13,0.06
2022-12-08 20:12:04.9980,-0.03,-0.29,-2.37,0.15,0.1,0.15
2022-12-08 20:12:05.0080,-0.14,-0.62,-1.88,0.11,0.01,0.19
2022-12-08 20:12:05.0180,-0.12,-1.04,-1.07,0.09,-0.06,0.18
2022-12-08 20:12:05.0280,-0.07,-1.44,-0.43,0.1,-0.11,0.15
2022-12-08 20:12:05.0380,-0.05,-1.52,-0.11,0.11,-0.12,0.08
2022-12-08 20:12:05.0480,-0.06,-1.51,0.15,0.11,-0.08,-0.0
2022-12-08 20:12:05.0580,0.01,-1.42,0.17,0.13,-0.0,-0.06
2022-12-08 20:12:05.0680,0.13,-1.1,0.04,0.15,0.06,-0.09
2022-12-08 20:12:05.0780,0.22,-0.74,-0.15,0.18,0.09,-0.11
2022-12-08 20:12:05.0870,0.33,-0.38,-0.46,0.19,0.06,-0.12
2022-12-08 20:12:05.0970,0.58,0.0,-0.78,0.18,0.01,-0.12
2022-12-08 20:12:05.1070,0.83,0.7057735472917557,-1.49,0.17,-0.04,-0.12
2022-12-08 20:12:05.1170,1.0,0.7,-1.49,0.15,-0.09,-0.11
2022-12-08 20:12:05.1270,1.08,0.97,-1.75,0.11,-0.12,-0.1
2022-12-08 20:12:05.1370,1.05,1.18,-2.0,0.08,-0.12,-0.08
2022-12-08 20:12:05.1470,0.92,1.32,-2.13,0.05,-0.12,-0.04
2022-12-08 20:12:05.1570,0.67,1.36,-2.17,0.03,-0.13,0.01
2022-12-08 20:12:05.1670,0.35,1.37,-2.13,0.01,-0.11,0.06
2022-12-08 20:12:05.1770,0.06,1.34,-2.14,-0.04,-0.12,0.11
2022-12-08 20:12:05.1870,-0.15,1.22,-2.02,-0.07,-0.12,0.15
2022-12-08 20:12:05.1970,-0.28,1.16,-1.83,-0.11,-0.14,0.16
2022-12-08 20:12:05.2070,-0.21,0.94,-1.42,-0.15,-0.17,0.14
2022-12-08 20:12:05.2160,-0.21,0.94,-1.42,-0.17,-0.15,0.11
2022-12-08 20:12:05.2270,-0.02,0.96,-1.24,-0.21,-0.13,0.07
2022-12-08 20:12:05.2370,0.1,1.02,-1.06,-0.23,-0.11,0.01
2022-12-08 20:12:05.2460,0.13,1.04,-0.85,-0.22,-0.05,-0.03
2022-12-08 20:12:05.2560,0.2,1.12,-0.73,-0.21,0.03,-0.04
2022-12-08 20:12:05.2660,0.31,1.24,-0.77,-0.21,0.09,-0.05
2022-12-08 20:12:05.2760,0.46,1.43,-0.77,-0.2,0.1,-0.04
2022-12-08 20:12:05.2870,0.46,1.43,-0.77,-0.19,0.08,-0.02
2022-12-08 20:12:05.2960,0.56,1.44,-0.79,-0.18,0.01,0.0
2022-12-08 20:12:05.3060,0.63,1.37,-0.68,-0.17,-0.07,0.04
2022-12-08 20:12:05.3160,0.64,1.27,-0.48,-0.16,-0.15,0.06
2022-12-08 20:12:05.3260,0.61,1.15,-0.22,-0.14,-0.2,0.09
2022-12-08 20:12:05.3360,0.54,0.97,0.1,-0.11,-0.22,0.13
2022-12-08 20:12:05.3460,0.38,0.73,0.39,-0.09,-0.24,0.16
2022-12-08 20:12:05.3560,0.22,0.48,0.68,-0.06,-0.21,0.19
2022-12-08 20:12:05.3660,0.05,0.21,0.85,-0.05,-0.2,0.21
2022-12-08 20:12:05.3760,0.05,-0.22,1.28,-0.05,-0.16,0.21
2022-12-08 20:12:05.3860,0.03,-0.49,1.51,-0.07,-0.11,0.19
2022-12-08 20:12:05.3960,0.03,-0.79,1.71,-0.09,-0.06,0.17
2022-12-08 20:12:05.4060,0.01,-0.98,1.95,-0.12,-0.02,0.14
2022-12-08 20:12:05.4160,0.0,-1.1,2.12,-0.12,0.04,0.11
2022-12-08 20:12:05.4260,0.07,-1.11,2.32,-0.11,0.11,0.08
2022-12-08 20:12:05.4360,0.13,-1.07,2.39,-0.07,0.18,0.08
2022-12-08 20:12:05.4460,0.1,-1.16,2.46,0.0,0.21,0.13
2022-12-08 20:12:05.4550,-0.13,-1.53,2.58,0.08,0.15,0.19
2022-12-08 20:12:05.4650,-0.45,-2.03,2.75,0.1,0.07,0.2
2022-12-08 20:12:05.4750,-0.65,-2.36,2.8,0.05,0.05,0.14
2022-12-08 20:12:05.4850,-0.53,-2.54,2.52,-0.01,0.06,0.09
2022-12-08 20:12:05.4950,-0.36,-2.49,2.35,-0.05,0.01,0.06
2022-12-08 20:12:05.5050,-0.35,-2.44,2.5,-0.05,-0.06,0.01
2022-12-08 20:12:05.5150,-0.22,-2.04,2.51,-0.03,-0.11,-0.05
2022-12-08 20:12:05.5250,0.2,-1.4,2.25,0.03,-0.12,-0.1
2022-12-08 20:12:05.5350,0.7,-0.73,1.71,0.1,-0.1,-0.12
2022-12-08 20:12:05.5450,0.97,-0.29,0.84,0.18,-0.1,-0.12
2022-12-08 20:12:05.5550,0.88,-0.05,-0.03,0.25,-0.11,-0.1
2022-12-08 20:12:05.5650,0.63,0.04,-0.79,0.28,-0.18,-0.05
2022-12-08 20:12:05.5750,0.2,-0.05,-1.21,0.26,-0.25,0.02
2022-12-08 20:12:05.5850,-0.26,-0.11,-1.5,0.21,-0.29,0.07
2022-12-08 20:12:05.5950,-0.77,-0.29,-1.6,0.17,-0.31,0.14
2022-12-08 20:12:05.6050,-1.24,-0.48,-1.54,0.09,-0.25,0.15
2022-12-08 20:12:05.6150,-1.53,-0.72,-1.41,-0.02,-0.19,0.13
2022-12-08 20:12:05.6250,-1.58,-0.86,-1.27,-0.11,-0.13,0.1
2022-12-08 20:12:05.6350,-1.44,-0.86,-0.9,-0.14,-0.09,0.06
2022-12-08 20:12:05.6440,-1.24,-0.85,-0.71,-0.15,-0.06,0.01
2022-12-08 20:12:05.6540,-1.06,-0.76,-0.57,-0.14,-0.02,-0.01
2022-12-08 20:12:05.6640,-0.88,-0.6,-0.6,-0.1,0.01,-0.02
2022-12-08 20:12:05.6740,-0.72,-0.41,-0.7,-0.07,0.05,-0.03
2022-12-08 20:12:05.6840,-0.51,-0.22,-0.83,-0.04,0.08,-0.04
2022-12-08 20:12:05.6950,-0.1,0.27,-1.28,-0.03,0.09,-0.05
2022-12-08 20:12:05.7040,-0.1,0.27,-1.28,-0.03,0.07,-0.05
2022-12-08 20:12:05.7140,0.04,0.51,-1.47,-0.04,0.0,-0.05
2022-12-08 20:12:05.7240,0.16,0.75,-1.67,-0.05,-0.07,-0.05
2022-12-08 20:12:05.7340,0.28,1.01,-1.85,-0.05,-0.12,-0.04
2022-12-08 20:12:05.7440,0.35,1.27,-1.99,-0.07,-0.14,-0.02
2022-12-08 20:12:05.7540,0.31,1.47,-2.13,-0.08,-0.13,0.01
2022-12-08 20:12:05.7640,0.21,1.67,-2.29,-0.1,-0.12,0.03
2022-12-08 20:12:05.7740,0.09,1.69,-2.28,-0.11,-0.13,0.06
2022-12-08 20:12:05.7840,-0.06,1.73,-2.17,-0.1,-0.13,0.09
2022-12-08 20:12:05.7940,-0.25,1.69,-1.99,-0.11,-0.12,0.11
2022-12-08 20:12:05.8040,-0.38,1.63,-1.78,-0.14,-0.12,0.11
2022-12-08 20:12:05.8140,-0.45,1.57,-1.58,-0.16,-0.11,0.11
2022-12-08 20:12:05.8240,-0.47,1.47,-1.35,-0.17,-0.09,0.1
2022-12-08 20:12:05.8340,-0.48,1.38,-1.02,-0.17,-0.05,0.07
2022-12-08 20:12:05.8430,-0.43,1.27,-0.72,-0.2,0.02,0.04
2022-12-08 20:12:05.8540,-0.29,1.22,-0.49,-0.2,0.08,0.0
2022-12-08 20:12:05.8630,-0.11,1.11,-0.29,-0.17,0.15,-0.03
2022-12-08 20:12:05.8730,0.04,1.05,-0.1,-0.16,0.21,-0.05
2022-12-08 20:12:05.8830,0.16,1.12,0.04,-0.17,0.26,-0.07
2022-12-08 20:12:05.8930,0.22,1.2,0.07,-0.17,0.28,-0.08
2022-12-08 20:12:05.9030,0.19,1.26,0.13,-0.17,0.26,-0.08
2022-12-08 20:12:05.9130,0.1,1.34,0.19,-0.17,0.2,-0.07
2022-12-08 20:12:05.9230,0.01,1.34,0.37,-0.16,0.13,-0.04
2022-12-08 20:12:05.9330,-0.06,1.32,0.55,-0.15,0.06,-0.02
2022-12-08 20:12:05.9430,-0.11,1.22,0.78,-0.13,-0.02,0.01
2022-12-08 20:12:05.9530,-0.13,1.01,1.04,-0.09,-0.1,0.03
2022-12-08 20:12:05.9630,-0.12,0.74,1.31,-0.03,-0.16,0.04
2022-12-08 20:12:05.9730,-0.16,0.46,1.61,0.01,-0.19,0.06
2022-12-08 20:12:05.9830,-0.26,0.19,1.89,0.05,-0.2,0.06
2022-12-08 20:12:05.9930,-0.36,-0.12,2.1,0.1,-0.19,0.04
2022-12-08 20:12:06.0030,-0.42,-0.44,2.3,0.12,-0.17,0.01
2022-12-08 20:12:06.0130,-0.42,-0.65,2.4,0.11,-0.17,-0.04
2022-12-08 20:12:06.0230,-0.46,-0.85,2.4,0.11,-0.17,-0.08
2022-12-08 20:12:06.0330,-0.45,-0.97,2.33,0.13,-0.17,-0.1
2022-12-08 20:12:06.0430,-0.41,-1.12,2.3,0.17,-0.15,-0.05
2022-12-08 20:12:06.0530,-0.61,-1.55,2.47,0.23,-0.12,0.03
2022-12-08 20:12:06.0630,-1.14,-2.12,2.81,0.23,-0.13,0.01
2022-12-08 20:12:06.0730,-1.44,-2.52,3.16,0.18,-0.04,-0.06
2022-12-08 20:12:06.0830,-0.72,-2.3,2.78,0.12,0.13,-0.13
2022-12-08 20:12:06.0930,-0.45,-1.94,2.49,0.06,0.3,-0.22
2022-12-08 20:12:06.1030,-0.45,-1.94,2.49,0.04,0.42,-0.32
2022-12-08 20:12:06.1120,-0.37,-1.37,2.05,0.02,0.46,-0.4
2022-12-08 20:12:06.1220,-0.27,-0.74,1.38,0.02,0.45,-0.46
2022-12-08 20:12:06.1320,-0.08,-0.16,0.52,0.06,0.44,-0.47
2022-12-08 20:12:06.1420,0.0,0.43,-0.39,0.12,0.33,-0.43
2022-12-08 20:12:06.1520,-0.08,0.85,-0.92,0.2,0.16,-0.34
2022-12-08 20:12:06.1620,-0.28,0.84,-1.06,0.28,0.04,-0.21
2022-12-08 20:12:06.1720,-0.3,0.94,-1.59,0.3,-0.06,-0.06
2022-12-08 20:12:06.1820,-0.3,0.9,-1.88,0.25,-0.09,0.08
2022-12-08 20:12:06.1920,-0.25,0.68,-2.06,0.16,-0.09,0.17
2022-12-08 20:12:06.2020,-0.29,0.27,-1.99,0.1,-0.08,0.22
2022-12-08 20:12:06.2120,-0.37,-0.21,-1.51,0.08,-0.08,0.24
2022-12-08 20:12:06.2220,-0.33,-0.8,-0.89,0.08,-0.09,0.22
2022-12-08 20:12:06.2320,-0.21,-1.34,-0.2,0.09,-0.1,0.17
2022-12-08 20:12:06.2420,-0.01,-1.59,0.25,0.08,-0.09,0.1
2022-12-08 20:12:06.2510,0.27,-1.75,0.47,0.1,-0.07,0.05
2022-12-08 20:12:06.2610,0.55,-1.71,0.5,0.13,-0.04,-0.02
2022-12-08 20:12:06.2710,0.76,-1.59,0.39,0.19,-0.0,-0.08
2022-12-08 20:12:06.2820,0.97,-1.32,0.22,0.23,0.03,-0.13
2022-12-08 20:12:06.2910,1.13,-0.96,-0.07,0.25,0.05,-0.17
2022-12-08 20:12:06.3010,1.15,-0.66,-0.43,0.24,0.05,-0.2
2022-12-08 20:12:06.3110,1.13,-0.35,-0.75,0.25,0.04,-0.23
2022-12-08 20:12:06.3210,1.15,0.04,-1.06,0.26,0.03,-0.25
2022-12-08 20:12:06.3310,1.19,0.38,-1.32,0.28,0.01,-0.27
2022-12-08 20:12:06.3410,1.22,0.74,-1.54,0.28,0.03,-0.28
2022-12-08 20:12:06.3510,1.18,1.14,-1.87,0.25,0.03,-0.29
2022-12-08 20:12:06.3610,1.02,1.21,-2.06,0.21,0.05,-0.28
2022-12-08 20:12:06.3710,0.82,1.35,-2.28,0.16,0.08,-0.25
2022-12-08 20:12:06.3810,0.61,1.51,-2.52,0.08,0.08,-0.22
2022-12-08 20:12:06.3910,0.38,1.63,-2.46,0.03,0.1,-0.19
2022-12-08 20:12:06.4010,0.21,1.55,-2.34,-0.02,0.15,-0.16
2022-12-08 20:12:06.4110,0.14,1.52,-2.23,-0.06,0.21,-0.14
2022-12-08 20:12:06.4210,0.04,1.47,-2.02,-0.1,0.27,-0.15
2022-12-08 20:12:06.4310,-0.08,1.31,-1.85,-0.15,0.3,-0.15
2022-12-08 20:12:06.4410,-0.17,1.24,-1.69,-0.19,0.31,-0.15
2022-12-08 20:12:06.4510,-0.25,1.16,-1.52,-0.21,0.32,-0.14
2022-12-08 20:12:06.4600,-0.25,1.1,-1.43,-0.25,0.29,-0.13
2022-12-08 20:12:06.4700,-0.17,1.08,-1.28,-0.28,0.25,-0.13
2022-12-08 20:12:06.4810,-0.06,1.07,-1.19,-0.3,0.19,-0.12
2022-12-08 20:12:06.4900,0.09,1.02,-1.15,-0.32,0.13,-0.09
2022-12-08 20:12:06.5000,0.19,1.05,-0.88,-0.32,0.09,-0.04
2022-12-08 20:12:06.5100,0.2,1.09,-0.66,-0.31,0.06,0.0
2022-12-08 20:12:06.5200,0.15,0.96,-0.3,-0.27,0.07,0.04
2022-12-08 20:12:06.5300,0.17,0.95,-0.01,-0.22,0.08,0.07
2022-12-08 20:12:06.5400,0.23,0.9,0.27,-0.2,0.09,0.11
2022-12-08 20:12:06.5500,0.3,0.57,0.74,-0.17,0.07,0.14
2022-12-08 20:12:06.5600,0.3,0.57,0.74,-0.15,0.0,0.15
2022-12-08 20:12:06.5700,0.3,0.26,1.05,-0.13,-0.08,0.15
2022-12-08 20:12:06.5800,0.25,-0.14,1.39,-0.12,-0.12,0.14
2022-12-08 20:12:06.5900,0.19,-0.52,1.73,-0.12,-0.13,0.12
2022-12-08 20:12:06.6000,0.16,-0.69,2.17,-0.11,-0.12,0.1
2022-12-08 20:12:06.6100,0.13,-0.8,2.58,-0.08,-0.06,0.07
2022-12-08 20:12:06.6200,0.14,-0.85,2.82,-0.06,0.03,0.03
2022-12-08 20:12:06.6300,0.17,-0.81,2.95,-0.05,0.11,0.01
2022-12-08 20:12:06.6400,0.14,-0.66,2.87,-0.02,0.2,-0.0
2022-12-08 20:12:06.6500,0.04,-0.55,2.62,0.01,0.26,0.02
2022-12-08 20:12:06.6600,-0.02,-0.51,2.36,0.05,0.26,0.07
2022-12-08 20:12:06.6700,-0.15,-0.6,2.26,0.1,0.17,0.18
2022-12-08 20:12:06.6800,-0.53,-0.92,2.38,0.14,-0.02,0.28
2022-12-08 20:12:06.6890,-0.98,-1.37,2.73,0.15,-0.19,0.31
2022-12-08 20:12:06.6990,-1.17,-1.72,2.91,0.11,-0.27,0.29
2022-12-08 20:12:06.7090,-0.99,-1.85,2.84,0.08,-0.29,0.26
2022-12-08 20:12:06.7190,-0.69,-1.95,2.74,0.09,-0.27,0.21
2022-12-08 20:12:06.7290,-0.52,-1.81,2.35,0.11,-0.27,0.13
2022-12-08 20:12:06.7390,-0.46,-1.46,1.72,0.11,-0.25,0.05
2022-12-08 20:12:06.7490,-0.28,-1.05,0.84,0.12,-0.22,0.01
2022-12-08 20:12:06.7590,-0.14,-0.62,0.06,0.16,-0.18,-0.01
2022-12-08 20:12:06.7690,-0.22,-0.24,-0.61,0.19,-0.13,-0.0
2022-12-08 20:12:06.7790,-0.29,-0.08,-1.09,0.21,-0.09,0.04
2022-12-08 20:12:06.7890,-0.42,0.03,-1.34,0.19,-0.04,0.1
2022-12-08 20:12:06.7990,-0.6,-0.06,-1.61,0.14,-0.02,0.16
2022-12-08 20:12:06.8090,-0.79,-0.27,-1.69,0.08,-0.01,0.2
2022-12-08 20:12:06.8190,-0.9,-0.48,-1.62,0.03,-0.02,0.21
2022-12-08 20:12:06.8290,-0.88,-0.68,-1.45,-0.01,-0.06,0.21
2022-12-08 20:12:06.8390,-0.74,-0.82,-1.2,-0.02,-0.11,0.19
2022-12-08 20:12:06.8490,-0.6,-1.0,-0.96,-0.01,-0.15,0.16
2022-12-08 20:12:06.8590,-0.52,-1.12,-0.72,0.01,-0.16,0.13
2022-12-08 20:12:06.8690,-0.41,-1.09,-0.56,0.05,-0.12,0.09
2022-12-08 20:12:06.8790,-0.3,-0.96,-0.63,0.09,-0.07,0.04
2022-12-08 20:12:06.8880,-0.21,-0.78,-0.75,0.12,-0.02,0.01
2022-12-08 20:12:06.8980,-0.08,-0.56,-0.99,0.14,0.0,-0.03
2022-12-08 20:12:06.9080,0.0,-0.37,-1.23,0.16,0.02,-0.08
2022-12-08 20:12:06.9180,0.02,-0.13,-1.41,0.16,0.05,-0.1
2022-12-08 20:12:06.9280,-0.02,0.12,-1.58,0.13,0.07,-0.1
2022-12-08 20:12:06.9380,-0.09,0.33,-1.83,0.07,0.07,-0.08
2022-12-08 20:12:06.9480,-0.16,0.45,-2.04,0.03,0.04,-0.07
2022-12-08 20:12:06.9580,-0.22,0.75,-2.28,-0.02,-0.0,-0.05
2022-12-08 20:12:06.9680,-0.21,0.91,-2.32,-0.05,-0.02,-0.02
2022-12-08 20:12:06.9780,-0.16,1.14,-2.42,-0.09,-0.03,0.01
2022-12-08 20:12:06.9880,-0.15,1.3,-2.47,-0.14,-0.03,0.01
2022-12-08 20:12:06.9980,-0.16,1.37,-2.45,-0.17,-0.01,0.03
2022-12-08 20:12:07.0080,-0.16,1.49,-2.46,-0.21,-0.0,0.06
2022-12-08 20:12:07.0180,-0.21,1.55,-2.33,-0.24,-0.0,0.07
2022-12-08 20:12:07.0280,-0.28,1.54,-2.14,-0.24,0.0,0.06
2022-12-08 20:12:07.0380,-0.23,1.56,-1.86,-0.24,0.01,0.03
2022-12-08 20:12:07.0480,-0.12,1.64,-1.53,-0.21,0.06,-0.02
2022-12-08 20:12:07.0580,0.15,1.9,-1.16,-0.19,0.15,-0.04
2022-12-08 20:12:07.0680,0.15,1.9,-1.16,-0.19,0.19,-0.06
2022-12-08 20:12:07.0780,0.13,1.97,-1.04,-0.2,0.19,-0.06
2022-12-08 20:12:07.0880,0.1,2.04,-1.02,-0.19,0.13,-0.03
2022-12-08 20:12:07.0970,0.09,2.13,-0.84,-0.16,0.05,0.01
2022-12-08 20:12:07.1080,0.06,2.13,-0.61,-0.15,0.01,0.03
2022-12-08 20:12:07.1170,0.02,2.06,-0.52,-0.16,-0.06,0.06
2022-12-08 20:12:07.1280,-0.01,2.03,-0.32,-0.15,-0.11,0.07
2022-12-08 20:12:07.1370,-0.1,1.86,-0.06,-0.13,-0.2,0.13
2022-12-08 20:12:07.1470,-0.3,1.78,0.52,-0.11,-0.15,0.11
2022-12-08 20:12:07.1570,-0.41,0.97,0.64,-0.1,-0.2,0.12
2022-12-08 20:12:07.1680,-0.83,0.59,1.6,-0.1,-0.21,0.11
2022-12-08 20:12:07.1770,-0.83,0.59,1.6,-0.08,-0.24,0.11
2022-12-08 20:12:07.1870,-1.06,0.19,1.91,-0.06,-0.26,0.11
2022-12-08 20:12:07.1970,-1.11,-0.07,2.29,-0.05,-0.27,0.1
2022-12-08 20:12:07.2070,-0.95,-0.44,2.37,-0.03,-0.27,0.09
2022-12-08 20:12:07.2170,-0.74,-0.71,2.48,-0.03,-0.25,0.06
2022-12-08 20:12:07.2270,-0.59,-0.91,2.56,-0.01,-0.18,0.0
2022-12-08 20:12:07.2360,-0.5,-1.09,2.7,0.04,-0.09,-0.07
2022-12-08 20:12:07.2470,-0.43,-1.22,2.99,0.1,0.03,-0.14
2022-12-08 20:12:07.2570,-0.35,-1.26,3.247300329208374,0.14,0.14,-0.21
2022-12-08 20:12:07.2670,-0.27,-1.42,3.24,0.21,0.23,-0.24
2022-12-08 20:12:07.2760,-0.38,-1.75,4.061877111196518,0.31,0.27,-0.22
2022-12-08 20:12:07.2870,-0.71,-2.14,4.06,0.37,0.29,-0.26
2022-12-08 20:12:07.2960,-1.05,-2.53,4.31,0.4,0.33,-0.33
2022-12-08 20:12:07.3060,-0.88,-2.56,4.23,0.44,0.45,-0.42
2022-12-08 20:12:07.3160,-0.44,-2.45,3.73,0.44,0.58,-0.5
2022-12-08 20:12:07.3260,-0.23,-1.94,2.91,0.42,0.66,-0.6
2022-12-08 20:12:07.3360,-0.18,-1.62,2.21,0.39,0.71,-0.66
2022-12-08 20:12:07.3460,0.03,-1.07,1.17,0.36,0.69,-0.67
2022-12-08 20:12:07.3560,0.13,-0.47,0.42,0.33,0.59,-0.67
2022-12-08 20:12:07.3660,0.15,-0.13,-0.21,0.34,0.46,-0.61
2022-12-08 20:12:07.3760,0.07,0.19,-0.84,0.35,0.39,-0.51
2022-12-08 20:12:07.3860,0.03,0.28,-1.48,0.34,0.36,-0.41
2022-12-08 20:12:07.3960,0.18,0.18,-1.93,0.3,0.39,-0.3
2022-12-08 20:12:07.4060,0.39,0.15,-2.14,0.23,0.47,-0.2
2022-12-08 20:12:07.4160,0.48,-0.01,-2.21,0.12,0.51,-0.14
2022-12-08 20:12:07.4260,0.34,-0.29,-2.13,0.03,0.5,-0.08
2022-12-08 20:12:07.4360,0.24,-0.74,-1.76,0.0,0.44,-0.02
2022-12-08 20:12:07.4460,0.27,-1.14,-1.24,0.02,0.35,0.01
2022-12-08 20:12:07.4560,0.33,-1.34,-0.79,0.09,0.24,0.01
2022-12-08 20:12:07.4650,0.41,-1.44,-0.47,0.16,0.18,-0.01
2022-12-08 20:12:07.4750,0.52,-1.34,-0.45,0.23,0.16,-0.02
2022-12-08 20:12:07.4850,0.63,-1.17,-0.6,0.26,0.12,-0.04
2022-12-08 20:12:07.4950,0.69,-0.82,-0.63,0.28,0.14,-0.08
2022-12-08 20:12:07.5050,0.83,-0.78,-0.89,0.3,0.09,-0.09
2022-12-08 20:12:07.5150,0.98,-0.28,-1.02,0.3,0.01,-0.09
2022-12-08 20:12:07.5250,1.08,-0.09,-1.18,0.29,-0.1,-0.09
2022-12-08 20:12:07.5350,1.12,0.17,-1.41,0.25,-0.18,-0.08
2022-12-08 20:12:07.5450,1.16,0.45,-1.71,0.2,-0.27,-0.07
2022-12-08 20:12:07.5550,1.14,0.73,-1.87,0.18,-0.33,-0.05
2022-12-08 20:12:07.5650,0.98,0.95,-2.0,0.15,-0.38,-0.02
2022-12-08 20:12:07.5750,0.85,1.09,-2.06,0.12,-0.42,0.01
2022-12-08 20:12:07.5850,0.64,1.25,-2.05,0.11,-0.43,0.03
2022-12-08 20:12:07.5950,0.43,1.19,-2.04,0.12,-0.43,0.07
2022-12-08 20:12:07.6050,0.2,1.38,-1.98,0.1,-0.44,0.11
2022-12-08 20:12:07.6150,-0.01,1.36,-1.94,0.06,-0.48,0.15
2022-12-08 20:12:07.6250,-0.18,1.27,-1.87,0.02,-0.54,0.18
2022-12-08 20:12:07.6350,-0.24,1.31,-1.71,-0.01,-0.59,0.2
2022-12-08 20:12:07.6450,-0.17,1.38,-1.73,-0.07,-0.62,0.21
2022-12-08 20:12:07.6550,-0.09,1.33,-1.66,-0.16,-0.6,0.2
2022-12-08 20:12:07.6650,-0.05,1.35,-1.58,-0.22,-0.54,0.18
2022-12-08 20:12:07.6750,0.01,1.43,-1.54,-0.23,-0.45,0.17
2022-12-08 20:12:07.6840,-0.05,1.53,-1.31,-0.23,-0.36,0.16
2022-12-08 20:12:07.6940,-0.09,1.54,-1.11,-0.22,-0.24,0.16
2022-12-08 20:12:07.7050,-0.16,1.53,-0.99,-0.24,-0.19,0.17
2022-12-08 20:12:07.7150,-0.25,1.52,-0.84,-0.28,-0.19,0.17
2022-12-08 20:12:07.7240,-0.3,1.41,-0.59,-0.3,-0.21,0.18
2022-12-08 20:12:07.7340,-0.21,1.38,-0.42,-0.31,-0.24,0.18
2022-12-08 20:12:07.7440,-0.02,1.4,-0.22,-0.31,-0.25,0.19
2022-12-08 20:12:07.7540,0.18,1.4,-0.15,-0.28,-0.26,0.21
2022-12-08 20:12:07.7640,0.3,1.33,-0.03,-0.24,-0.28,0.24
2022-12-08 20:12:07.7740,0.31,1.32,0.15,-0.21,-0.31,0.27
2022-12-08 20:12:07.7840,0.24,1.12,0.25,-0.18,-0.31,0.28
2022-12-08 20:12:07.7940,0.2,0.91,0.37,-0.17,-0.31,0.29
2022-12-08 20:12:07.8040,0.19,0.65,0.6,-0.17,-0.27,0.29
2022-12-08 20:12:07.8140,0.12,0.31,0.83,-0.17,-0.21,0.28
2022-12-08 20:12:07.8240,0.06,-0.03,1.11,-0.17,-0.18,0.26
2022-12-08 20:12:07.8340,0.01,-0.35,1.54,-0.16,-0.14,0.23
2022-12-08 20:12:07.8440,0.05,-0.6,1.92,-0.15,-0.07,0.19
2022-12-08 20:12:07.8540,0.23,-0.66,2.13,-0.17,0.01,0.15
2022-12-08 20:12:07.8640,0.4,-0.7,2.29,-0.15,0.1,0.12
2022-12-08 20:12:07.8740,0.5,-0.88,2.4,-0.06,0.16,0.13
2022-12-08 20:12:07.8840,0.47,-1.32,2.8,0.11,0.16,0.2
2022-12-08 20:12:07.8940,0.2,-1.96,3.42,0.28,0.14,0.27
2022-12-08 20:12:07.9040,-0.91,-3.52,3.88,0.35,0.05,0.26
2022-12-08 20:12:07.9140,-0.91,-3.52,3.88,0.32,0.05,0.23
2022-12-08 20:12:07.9240,-1.0,-3.54,3.87,0.24,0.03,0.17
2022-12-08 20:12:07.9330,-0.9,-3.25,3.99,0.19,-0.01,0.08
2022-12-08 20:12:07.9430,-0.91,-2.99,4.2,0.21,-0.03,-0.04
2022-12-08 20:12:07.9530,-0.61,-2.34,3.8,0.24,-0.01,-0.13
2022-12-08 20:12:07.9630,0.0,-1.43,3.13,0.31,0.05,-0.18
2022-12-08 20:12:07.9730,0.35,-0.77,1.94,0.37,0.07,-0.17
2022-12-08 20:12:07.9830,0.34,-0.49,0.86,0.41,0.06,-0.13
2022-12-08 20:12:07.9930,0.13,-0.34,-0.07,0.4,0.01,-0.06
2022-12-08 20:12:08.0030,-0.12,-0.18,-0.99,0.36,-0.06,0.01
2022-12-08 20:12:08.0130,-0.54,-0.23,-1.66,0.31,-0.17,0.11
2022-12-08 20:12:08.0230,-1.15,-0.31,-2.04,0.25,-0.26,0.18
2022-12-08 20:12:08.0330,-1.79,-0.51,-2.27,0.17,-0.33,0.22
2022-12-08 20:12:08.0430,-2.31,-0.79,-2.14,0.08,-0.33,0.24
2022-12-08 20:12:08.0530,-2.49,-1.02,-1.85,-0.01,-0.27,0.24
2022-12-08 20:12:08.0630,-2.3,-1.15,-1.53,-0.09,-0.19,0.22
2022-12-08 20:12:08.0730,-1.95,-1.12,-1.02,-0.12,-0.1,0.19
2022-12-08 20:12:08.0830,-1.56,-1.08,-0.58,-0.1,-0.01,0.15
2022-12-08 20:12:08.0930,-1.21,-0.93,-0.3,-0.07,0.05,0.11
2022-12-08 20:12:08.1030,-0.91,-0.85,-0.27,-0.04,0.08,0.08
2022-12-08 20:12:08.1120,-0.64,-0.67,-0.23,0.0,0.09,0.05
2022-12-08 20:12:08.1230,-0.03,-0.27,-0.61,0.03,0.11,0.03
2022-12-08 20:12:08.1320,-0.03,-0.27,-0.61,0.03,0.12,0.03
2022-12-08 20:12:08.1420,0.24,-0.04,-0.97,-0.0,0.09,0.04
2022-12-08 20:12:08.1520,0.49,0.47,-1.66,-0.03,0.03,0.06
2022-12-08 20:12:08.1620,0.53,0.71,-1.97,-0.06,-0.05,0.09
2022-12-08 20:12:08.1720,0.53,0.71,-1.97,-0.1,-0.14,0.14
2022-12-08 20:12:08.1820,0.53,0.92,-2.22,-0.12,-0.22,0.16
2022-12-08 20:12:08.1920,0.49,1.18,-2.49,-0.14,-0.27,0.17
2022-12-08 20:12:08.2020,0.46,1.37,-2.68,-0.16,-0.29,0.17
2022-12-08 20:12:08.2120,0.43,1.53,-2.77,-0.16,-0.27,0.18
2022-12-08 20:12:08.2220,0.36,1.67,-2.86,-0.14,-0.23,0.16
2022-12-08 20:12:08.2320,0.27,1.75,-2.76,-0.13,-0.16,0.14
2022-12-08 20:12:08.2420,0.21,1.93,-2.61,-0.12,-0.1,0.12
2022-12-08 20:12:08.2520,-0.1,1.98,-2.42,-0.13,-0.07,0.12
2022-12-08 20:12:08.2620,-0.1,1.98,-2.42,-0.14,-0.1,0.12
2022-12-08 20:12:08.2710,-0.25,2.03,-2.22,-0.15,-0.14,0.11
2022-12-08 20:12:08.2820,-0.25,2.08,-2.02,-0.16,-0.13,0.1
2022-12-08 20:12:08.2920,-0.08,2.18,-1.9,-0.21,-0.13,0.1
2022-12-08 20:12:08.3010,0.12,2.46,-1.85,-0.25,-0.16,0.08
2022-12-08 20:12:08.3120,0.27,2.2,-1.05,-0.2,-0.2,0.09
2022-12-08 20:12:08.3210,0.27,2.2,-1.05,-0.12,-0.21,0.1
2022-12-08 20:12:08.3310,0.2,1.92,-0.49,-0.05,-0.2,0.11
2022-12-08 20:12:08.3410,0.2,1.92,-0.49,-0.0,-0.15,0.12
2022-12-08 20:12:08.3510,0.15,1.82,-0.39,0.01,-0.11,0.12
2022-12-08 20:12:08.3610,0.12,1.44,-0.25,-0.01,-0.03,0.13
2022-12-08 20:12:08.3710,0.1,1.24,-0.19,-0.06,-0.03,0.1
2022-12-08 20:12:08.3810,0.0,1.01,0.26,-0.08,-0.05,0.06
2022-12-08 20:12:08.3910,-0.11,0.72,0.68,-0.07,-0.08,0.04
2022-12-08 20:12:08.4010,-0.23,0.57,0.98,-0.05,-0.11,0.02
2022-12-08 20:12:08.4110,-0.3,0.39,1.27,-0.02,-0.08,0.0
2022-12-08 20:12:08.4210,-0.37,0.25,1.35,0.01,-0.03,-0.01
2022-12-08 20:12:08.4310,-0.5,-0.03,1.53,0.05,0.04,-0.01
2022-12-08 20:12:08.4410,-0.67,-0.41,1.82,0.06,0.1,-0.03
2022-12-08 20:12:08.4510,-0.81,-0.84,1.98,0.06,0.15,-0.07
2022-12-08 20:12:08.4610,-0.96,-1.21,2.23,0.03,0.18,-0.1
2022-12-08 20:12:08.4710,-0.98,-1.33,2.4,0.04,0.15,-0.15
2022-12-08 20:12:08.4810,-0.99,-1.47,2.86,0.08,0.14,-0.17
2022-12-08 20:12:08.4900,-0.88,-1.74,3.19,0.15,0.15,-0.13
2022-12-08 20:12:08.5000,-0.98,-2.16,3.75,0.26,0.16,-0.09
2022-12-08 20:12:08.5100,-1.3,-3.11,4.51,0.24,0.22,-0.13
2022-12-08 20:12:08.5200,-1.2,-3.43,4.54,0.09,0.27,-0.29
2022-12-08 20:12:08.5300,-0.68,-3.22,4.38,-0.02,0.44,-0.41
2022-12-08 20:12:08.5400,-0.13,-3.05,3.94,-0.05,0.64,-0.49
2022-12-08 20:12:08.5500,0.14,-2.53,3.19,-0.08,0.76,-0.58
2022-12-08 20:12:08.5600,0.16,-1.79,2.54,-0.08,0.81,-0.65
2022-12-08 20:12:08.5700,0.32,-1.04,1.63,-0.03,0.84,-0.68
2022-12-08 20:12:08.5800,0.41,-0.33,0.81,0.05,0.81,-0.65
2022-12-08 20:12:08.5900,0.4,0.03,0.18,0.11,0.69,-0.56
2022-12-08 20:12:08.6000,0.34,0.24,-0.16,0.15,0.52,-0.46
2022-12-08 20:12:08.6100,0.31,0.31,-0.65,0.21,0.37,-0.35
2022-12-08 20:12:08.6200,0.37,0.3,-1.17,0.28,0.24,-0.23
2022-12-08 20:12:08.6300,0.46,0.2,-1.6,0.33,0.18,-0.13
2022-12-08 20:12:08.6400,0.55,-0.34,-2.32,0.32,0.18,-0.03
2022-12-08 20:12:08.6500,0.32,-0.7,-2.25,0.3,0.17,0.03
2022-12-08 20:12:08.6600,0.32,-0.7,-2.25,0.29,0.14,0.07
2022-12-08 20:12:08.6700,0.1,-1.17,-1.81,0.31,0.13,0.1
2022-12-08 20:12:08.6800,0.04,-1.54,-1.3,0.32,0.14,0.09
2022-12-08 20:12:08.6890,0.1,-1.8,-0.92,0.3,0.15,0.06
2022-12-08 20:12:08.7000,0.23,-1.92,-0.62,0.25,0.17,-0.02
2022-12-08 20:12:08.7090,0.35,-1.92,-0.55,0.21,0.18,-0.08
2022-12-08 20:12:08.7190,0.42,-1.74,-0.64,0.2,0.17,-0.15
2022-12-08 20:12:08.7290,0.53,-1.43,-0.79,0.2,0.14,-0.19
2022-12-08 20:12:08.7390,0.63,-1.0,-0.98,0.21,0.11,-0.22
2022-12-08 20:12:08.7490,0.77,-0.56,-1.22,0.22,0.12,-0.23
2022-12-08 20:12:08.7590,0.91,-0.12,-1.57,0.22,0.12,-0.23
2022-12-08 20:12:08.7690,0.92,0.26,-1.76,0.23,0.1,-0.24
2022-12-08 20:12:08.7790,0.82,0.53,-1.96,0.23,0.08,-0.22
2022-12-08 20:12:08.7890,0.75,0.76,-2.11,0.21,0.04,-0.19
2022-12-08 20:12:08.7990,0.6,0.96,-2.17,0.2,-0.01,-0.14
2022-12-08 20:12:08.8090,0.36,1.04,-2.16,0.16,-0.06,-0.1
2022-12-08 20:12:08.8190,0.13,1.13,-2.18,0.12,-0.09,-0.07
2022-12-08 20:12:08.8290,-0.1,1.22,-2.17,0.06,-0.1,-0.02
2022-12-08 20:12:08.8390,-0.26,1.24,-2.05,0.01,-0.1,0.02
2022-12-08 20:12:08.8490,-0.32,1.29,-1.97,-0.04,-0.09,0.03
2022-12-08 20:12:08.8590,-0.39,1.3,-1.88,-0.09,-0.09,0.04
2022-12-08 20:12:08.8690,-0.4,1.29,-1.65,-0.11,-0.11,0.07
2022-12-08 20:12:08.8790,-0.43,1.35,-1.46,-0.13,-0.14,0.08
2022-12-08 20:12:08.8880,-0.48,1.32,-1.27,-0.14,-0.16,0.1
2022-12-08 20:12:08.8980,-0.46,1.39,-1.16,-0.15,-0.18,0.13
2022-12-08 20:12:08.9090,-0.45,1.39,-1.07,-0.15,-0.19,0.15
2022-12-08 20:12:08.9180,-0.39,1.35,-0.87,-0.15,-0.19,0.16
2022-12-08 20:12:08.9280,-0.27,1.36,-0.76,-0.16,-0.19,0.16
2022-12-08 20:12:08.9380,-0.12,1.36,-0.73,-0.17,-0.17,0.16
2022-12-08 20:12:08.9480,0.0,1.35,-0.72,-0.18,-0.15,0.17
2022-12-08 20:12:08.9580,0.11,1.36,-0.69,-0.2,-0.14,0.17
2022-12-08 20:12:08.9680,0.19,1.4,-0.7,-0.21,-0.15,0.18
2022-12-08 20:12:08.9780,0.18,1.38,-0.7,-0.24,-0.18,0.2
2022-12-08 20:12:08.9880,0.19,1.33,-0.61,-0.26,-0.21,0.22
2022-12-08 20:12:08.9980,0.17,1.29,-0.44,-0.27,-0.24,0.25
2022-12-08 20:12:09.0080,0.13,1.26,-0.19,-0.26,-0.26,0.28
2022-12-08 20:12:09.0180,0.08,1.18,0.14,-0.24,-0.27,0.32
2022-12-08 20:12:09.0280,0.09,1.07,0.43,-0.23,-0.3,0.35
2022-12-08 20:12:09.0380,0.1,0.92,0.71,-0.22,-0.32,0.37
2022-12-08 20:12:09.0480,0.14,0.74,0.88,-0.22,-0.35,0.38
2022-12-08 20:12:09.0580,0.23,0.56,1.11,-0.22,-0.36,0.38
2022-12-08 20:12:09.0680,0.32,0.37,1.38,-0.23,-0.34,0.36
2022-12-08 20:12:09.0780,0.29,0.16,1.52,-0.25,-0.31,0.33
2022-12-08 20:12:09.0880,0.31,-0.12,1.85,-0.24,-0.25,0.3
2022-12-08 20:12:09.0980,0.34,-0.23,2.07,-0.22,-0.16,0.26
2022-12-08 20:12:09.1080,0.36,-0.33,2.2,-0.21,-0.07,0.22
2022-12-08 20:12:09.1180,0.39,-0.43,2.37,-0.21,0.03,0.18
2022-12-08 20:12:09.1280,0.47,-0.62,2.53,-0.17,0.11,0.16
2022-12-08 20:12:09.1370,0.54,-0.86,2.68,-0.1,0.16,0.2
2022-12-08 20:12:09.1470,0.36,-1.2,2.94,-0.0,0.13,0.28
2022-12-08 20:12:09.1570,-0.11,-1.81,3.35,0.07,0.06,0.31
2022-12-08 20:12:09.1670,-0.53,-2.42,3.76,0.05,0.05,0.25
2022-12-08 20:12:09.1770,-0.56,-2.5,3.64,0.0,0.04,0.16
2022-12-08 20:12:09.1870,-0.01,-2.75,3.46,-0.02,0.08,0.08
2022-12-08 20:12:09.1970,0.51,-2.23,3.11,0.01,0.09,-0.02
2022-12-08 20:12:09.2070,0.51,-2.23,2.7,0.07,0.05,-0.13
2022-12-08 20:12:09.2170,1.0,-1.49,2.7,0.17,0.05,-0.21
2022-12-08 20:12:09.2270,1.73,-0.47,0.46,0.25,0.11,-0.27
2022-12-08 20:12:09.2370,1.73,-0.47,0.46,0.31,0.15,-0.27
2022-12-08 20:12:09.2470,1.44,-0.11,-0.58,0.35,0.12,-0.22
2022-12-08 20:12:09.2570,0.26,-0.19,-1.55,0.37,-0.01,-0.13
2022-12-08 20:12:09.2670,0.26,-0.19,-1.55,0.37,-0.15,-0.03
2022-12-08 20:12:09.2760,-0.25,-0.35,-1.83,0.35,-0.25,0.04
2022-12-08 20:12:09.2860,-0.76,-0.64,-2.09,0.29,-0.29,0.1
2022-12-08 20:12:09.2970,-1.23,-0.96,-2.09,0.21,-0.29,0.13
2022-12-08 20:12:09.3060,-1.75,-1.29,-1.65,0.11,-0.26,0.13
2022-12-08 20:12:09.3160,-1.67,-1.28,-1.4,0.01,-0.21,0.09
2022-12-08 20:12:09.3260,-1.67,-1.28,-1.4,-0.05,-0.13,0.05
2022-12-08 20:12:09.3360,-1.46,-1.25,-1.11,-0.07,-0.06,-0.0
2022-12-08 20:12:09.3470,-1.29,-1.06,-0.8,-0.06,0.03,-0.05
2022-12-08 20:12:09.3560,-1.08,-0.8,-0.8,-0.04,0.12,-0.08
2022-12-08 20:12:09.3660,-0.79,-0.54,-0.84,-0.04,0.17,-0.09
2022-12-08 20:12:09.3760,-0.54,-0.39,-0.94,-0.04,0.18,-0.1
2022-12-08 20:12:09.3860,-0.27,-0.12,-1.09,-0.05,0.15,-0.09
2022-12-08 20:12:09.3960,-0.05,0.17,-1.29,-0.06,0.11,-0.09
2022-12-08 20:12:09.4060,0.11,0.38,-1.49,-0.06,0.07,-0.07
2022-12-08 20:12:09.4160,0.26,0.67,-1.65,-0.08,0.06,-0.08
2022-12-08 20:12:09.4260,0.5,1.14,-2.13,-0.14,0.06,-0.09
2022-12-08 20:12:09.4360,0.5,1.14,-2.13,-0.19,0.08,-0.09
2022-12-08 20:12:09.4460,0.48,1.26,-2.25,-0.22,0.11,-0.08
2022-12-08 20:12:09.4560,0.32,1.32,-2.36,-0.22,0.13,-0.06
2022-12-08 20:12:09.4660,0.02,1.41,-2.34,-0.23,0.15,-0.02
2022-12-08 20:12:09.4760,-0.22,1.39,-2.18,-0.25,0.17,0.03
2022-12-08 20:12:09.4850,-0.34,1.39,-2.09,-0.28,0.17,0.06
2022-12-08 20:12:09.4960,-0.37,1.34,-1.99,-0.3,0.13,0.08
2022-12-08 20:12:09.5060,-0.23,1.2,-1.85,-0.35,0.11,0.11
2022-12-08 20:12:09.5160,0.01,1.25,-2.0,-0.43,0.01,0.14
2022-12-08 20:12:09.5250,0.1,1.23,-1.77,-0.49,-0.14,0.16
2022-12-08 20:12:09.5350,0.15,1.26,-1.46,-0.5,-0.27,0.16
2022-12-08 20:12:09.5450,0.23,1.25,-0.93,-0.44,-0.3,0.12
2022-12-08 20:12:09.5550,0.36,1.29,-0.44,-0.36,-0.19,0.06
2022-12-08 20:12:09.5650,0.51,1.33,-0.18,-0.29,-0.02,-0.01
2022-12-08 20:12:09.5750,0.5,1.47,0.04,-0.23,0.17,-0.08
2022-12-08 20:12:09.5850,0.48,1.54,0.2,-0.15,0.32,-0.14
2022-12-08 20:12:09.5950,0.4,1.6,0.26,-0.1,0.38,-0.14
2022-12-08 20:12:09.6050,0.3,1.5954496282339097,-0.09,-0.1,0.32,-0.14
2022-12-08 20:12:09.6150,0.32,1.59,-0.09,-0.12,0.18,-0.12
2022-12-08 20:12:09.6250,0.39,1.59,-0.16,-0.12,0.05,-0.09
2022-12-08 20:12:09.6350,0.37,1.54,-0.05,-0.11,-0.05,-0.06
2022-12-08 20:12:09.6450,0.26,1.51,0.29,-0.06,-0.08,-0.03
2022-12-08 20:12:09.6550,0.15,1.39,0.66,0.01,-0.07,-0.01
2022-12-08 20:12:09.6650,0.04,1.17,0.98,0.04,-0.06,0.0
2022-12-08 20:12:09.6750,-0.04,0.82,1.33,0.08,-0.03,0.01
2022-12-08 20:12:09.6850,-0.11,0.39,1.58,0.11,-0.01,0.0
2022-12-08 20:12:09.6950,-0.18,0.01,1.85,0.13,-0.02,-0.02
2022-12-08 20:12:09.7040,-0.23,-0.35,2.17,0.13,-0.02,-0.05
2022-12-08 20:12:09.7150,-0.25,-0.7,2.24,0.08,-0.03,-0.1
2022-12-08 20:12:09.7240,-0.22,-0.97,2.23,0.03,-0.05,-0.16
2022-12-08 20:12:09.7340,-0.15,-1.11,2.22,0.03,-0.05,-0.18
2022-12-08 20:12:09.7440,-0.19,-1.17,2.37,0.08,-0.05,-0.14
2022-12-08 20:12:09.7540,-0.57,-1.46,2.77,0.18,-0.05,-0.06
2022-12-08 20:12:09.7640,-1.17,-2.11,3.3,0.26,-0.04,0.0
2022-12-08 20:12:09.7740,-1.44,-2.74,3.75,0.21,0.05,-0.03
2022-12-08 20:12:09.7840,-1.29,-2.64,3.54,0.15,0.14,-0.12
2022-12-08 20:12:09.7940,-1.06,-2.75,3.94,0.12,0.25,-0.23
2022-12-08 20:12:09.8040,-0.6,-2.72,3.78,0.07,0.32,-0.37
2022-12-08 20:12:09.8140,-0.15,-2.21,3.37,0.05,0.36,-0.48
2022-12-08 20:12:09.8240,0.22,-1.47,2.77,0.09,0.41,-0.53
2022-12-08 20:12:09.8340,0.54,-0.85,1.94,0.14,0.42,-0.53
2022-12-08 20:12:09.8440,0.65,-0.35,1.24,0.19,0.4,-0.51
2022-12-08 20:12:09.8540,0.58,0.16,0.47,0.27,0.32,-0.44
2022-12-08 20:12:09.8640,0.48,0.38,-0.2,0.36,0.23,-0.34
2022-12-08 20:12:09.8740,0.3,0.44,-0.76,0.41,0.15,-0.22
2022-12-08 20:12:09.8840,0.1,0.3,-1.23,0.4,0.12,-0.11
2022-12-08 20:12:09.8930,-0.02,0.08,-1.61,0.31,0.12,-0.03
2022-12-08 20:12:09.9040,-0.11,-0.41,-1.72,0.25,0.13,-0.0
2022-12-08 20:12:09.9140,-0.15,-0.83,-1.45,0.22,0.14,-0.02
2022-12-08 20:12:09.9230,-0.06,-1.23,-1.0,0.2,0.13,-0.06
2022-12-08 20:12:09.9330,0.12,-1.53,-0.49,0.21,0.14,-0.12
2022-12-08 20:12:09.9430,0.25,-1.61,-0.25,0.23,0.18,-0.19
2022-12-08 20:12:09.9530,0.37,-1.57,-0.08,0.24,0.24,-0.25
2022-12-08 20:12:09.9630,0.58,-1.46,-0.26,0.23,0.25,-0.29
2022-12-08 20:12:09.9730,0.79,-1.18,-0.48,0.21,0.22,-0.32
2022-12-08 20:12:09.9830,0.99,-0.87,-0.83,0.19,0.13,-0.33
2022-12-08 20:12:09.9930,1.14,-0.47,-1.14,0.18,0.04,-0.32
2022-12-08 20:12:10.0030,1.25,-0.08,-1.5,0.15,-0.06,-0.31
2022-12-08 20:12:10.0130,1.33,0.28,-1.86,0.09,-0.12,-0.29
2022-12-08 20:12:10.0230,1.32,0.58,-2.21,0.05,-0.19,-0.26
2022-12-08 20:12:10.0330,1.23,0.91,-2.27,0.03,-0.19,-0.24
2022-12-08 20:12:10.0430,1.11,1.11,-2.31,0.02,-0.19,-0.23
2022-12-08 20:12:10.0530,1.02,1.26,-2.29,0.04,-0.15,-0.23
2022-12-08 20:12:10.0630,0.79,1.43,-2.38,0.05,-0.1,-0.21
2022-12-08 20:12:10.0730,0.57,1.55,-2.34,0.08,-0.08,-0.16
2022-12-08 20:12:10.0830,0.25,1.58,-2.29,0.1,-0.06,-0.12
2022-12-08 20:12:10.0930,-0.08,1.55,-2.33,0.1,-0.06,-0.07
2022-12-08 20:12:10.1030,-0.33,1.55,-2.24,0.08,-0.04,-0.02
2022-12-08 20:12:10.1130,-0.48,1.4,-2.26,-0.0,-0.01,0.02
2022-12-08 20:12:10.1220,-0.61,1.22,-2.34,-0.11,-0.02,0.03
2022-12-08 20:12:10.1330,-0.54,1.12,-2.12,-0.2,-0.07,0.04
2022-12-08 20:12:10.1420,-0.41,0.91,-1.37,-0.26,-0.14,0.03
2022-12-08 20:12:10.1520,-0.41,0.91,-1.37,-0.28,-0.17,0.05
2022-12-08 20:12:10.1620,-0.2,1.0,-1.01,-0.3,-0.2,0.06
2022-12-08 20:12:10.1720,0.0,1.04,-0.75,-0.29,-0.18,0.06
2022-12-08 20:12:10.1820,0.23,1.15,-0.37,-0.28,-0.11,0.05
2022-12-08 20:12:10.1920,0.49,1.39,-0.11,-0.26,-0.02,0.04
2022-12-08 20:12:10.2020,0.49,1.39,-0.11,-0.24,0.07,0.04
2022-12-08 20:12:10.2120,0.55,1.47,-0.02,-0.21,0.1,0.04
2022-12-08 20:12:10.2220,0.56,1.47,0.01,-0.19,0.04,0.05
2022-12-08 20:12:10.2320,0.6,1.45,0.15,-0.16,-0.07,0.08
2022-12-08 20:12:10.2420,0.69,1.32,0.4,-0.11,-0.16,0.13
2022-12-08 20:12:10.2520,0.6,1.16,0.6,-0.08,-0.22,0.17
2022-12-08 20:12:10.2620,0.52,0.88,0.82,-0.04,-0.26,0.2
2022-12-08 20:12:10.2720,0.54,0.65,1.07,-0.02,-0.25,0.24
2022-12-08 20:12:10.2820,0.52,0.25,1.28,0.01,-0.26,0.28
2022-12-08 20:12:10.2920,0.47,-0.14,1.56,0.03,-0.26,0.29
2022-12-08 20:12:10.3020,0.41,-0.56,1.9,0.03,-0.25,0.27
2022-12-08 20:12:10.3120,0.43,-1.24,2.45,0.02,-0.21,0.22
2022-12-08 20:12:10.3220,0.49,-1.5,2.6,-0.01,-0.13,0.13
2022-12-08 20:12:10.3320,0.49,-1.5,2.6,-0.04,-0.03,0.02
2022-12-08 20:12:10.3410,0.5,-1.62,2.7,-0.04,0.08,-0.07
2022-12-08 20:12:10.3510,0.43,-1.5,2.83,0.04,0.18,-0.08
2022-12-08 20:12:10.3620,0.26,-1.44,2.85,0.17,0.23,-0.02
2022-12-08 20:12:10.3710,-0.09,-1.62,2.96,0.25,0.23,0.05
2022-12-08 20:12:10.3810,-0.47,-1.99,2.94,0.22,0.21,0.04
2022-12-08 20:12:10.3910,-0.54,-2.25,2.8,0.15,0.22,0.01
2022-12-08 20:12:10.4010,-0.35,-2.32,2.68,0.08,0.22,-0.01
2022-12-08 20:12:10.4110,-0.21,-2.25,2.77,0.04,0.18,-0.05
2022-12-08 20:12:10.4210,-0.15,-2.05,2.98,0.04,0.11,-0.1
2022-12-08 20:12:10.4310,0.03,-1.62,2.99,0.08,0.07,-0.16
2022-12-08 20:12:10.4410,0.37,-1.07,2.64,0.15,0.13,-0.21
2022-12-08 20:12:10.4510,0.65,-0.63,1.74,0.21,0.21,-0.24
2022-12-08 20:12:10.4610,0.51,-0.4,0.78,0.25,0.25,-0.24
2022-12-08 20:12:10.4710,0.08,-0.31,0.12,0.29,0.25,-0.22
2022-12-08 20:12:10.4810,-0.35,-0.24,-0.59,0.31,0.2,-0.19
2022-12-08 20:12:10.4910,-0.73,-0.26,-1.01,0.32,0.12,-0.16
2022-12-08 20:12:10.5010,-1.47,-0.31,-1.64,0.28,0.05,-0.12
2022-12-08 20:12:10.5110,-1.47,-0.31,-1.64,0.22,0.0,-0.08
2022-12-08 20:12:10.5200,-1.75,-0.43,-1.89,0.14,-0.02,-0.05
2022-12-08 20:12:10.5300,-1.73,-0.42,-1.92,0.08,-0.04,-0.04
2022-12-08 20:12:10.5400,-1.73,-0.42,-1.92,0.05,-0.03,-0.04
2022-12-08 20:12:10.5510,-1.48,-0.36,-1.76,0.03,0.01,-0.02
2022-12-08 20:12:10.5610,-1.22,-0.3,-1.65,0.02,0.03,-0.01
2022-12-08 20:12:10.5700,-1.07,-0.23,-1.52,-0.0,0.03,-0.01
2022-12-08 20:12:10.5800,-0.93,-0.18,-1.45,-0.01,0.01,0.0
2022-12-08 20:12:10.5900,-0.8,-0.12,-1.32,-0.0,-0.0,0.02
2022-12-08 20:12:10.6000,-0.67,-0.06,-1.27,-0.02,-0.02,0.02
2022-12-08 20:12:10.6100,-0.53,0.05,-1.3,-0.03,-0.01,0.01
2022-12-08 20:12:10.6200,-0.36,0.16,-1.35,-0.06,-0.02,-0.0
2022-12-08 20:12:10.6300,-0.13,0.31,-1.39,-0.09,-0.02,-0.03
2022-12-08 20:12:10.6400,0.07,0.49,-1.49,-0.13,-0.05,-0.06
2022-12-08 20:12:10.6500,0.19,0.68,-1.61,-0.14,-0.07,-0.06
2022-12-08 20:12:10.6600,0.27,0.91,-1.72,-0.12,-0.07,-0.07
2022-12-08 20:12:10.6700,0.24,1.3,-1.81,-0.1,-0.05,-0.05
2022-12-08 20:12:10.6800,0.24,1.4,-1.84,-0.1,-0.04,-0.02
2022-12-08 20:12:10.6900,0.03004869505763054,1.58,-2.07,-0.09,-0.01,0.02
2022-12-08 20:12:10.7000,0.03,1.58,-2.07,-0.08,-0.01,0.05
2022-12-08 20:12:10.7100,-0.02,1.57,-2.21,-0.1,-0.03,0.09
2022-12-08 20:12:10.7190,0.01,1.58,-2.13,-0.11,-0.04,0.12
2022-12-08 20:12:10.7290,0.02,1.61,-2.13,-0.14,-0.07,0.12
2022-12-08 20:12:10.7390,-0.03,1.57,-1.98,-0.15,-0.08,0.13
2022-12-08 20:12:10.7490,-0.08,1.57,-1.79,-0.16,-0.09,0.13
2022-12-08 20:12:10.7590,-0.13,1.57,-1.57,-0.18,-0.11,0.13
2022-12-08 20:12:10.7690,-0.16,1.6,-1.41,-0.18,-0.11,0.13
2022-12-08 20:12:10.7790,-0.18,1.61,-1.33,-0.19,-0.12,0.13
2022-12-08 20:12:10.7890,-0.18,1.59,-1.16,-0.18,-0.12,0.13
2022-12-08 20:12:10.7990,-0.16,1.59,-0.98,-0.16,-0.1,0.13
2022-12-08 20:12:10.8090,-0.15,1.62,-0.76,-0.15,-0.07,0.14
2022-12-08 20:12:10.8190,-0.1,1.6,-0.58,-0.13,-0.05,0.13
2022-12-08 20:12:10.8290,-0.05,1.59,-0.38,-0.11,-0.04,0.14
2022-12-08 20:12:10.8390,-0.05,1.57,-0.15,-0.09,-0.06,0.14
2022-12-08 20:12:10.8490,-0.1,1.48,0.11,-0.07,-0.07,0.15
2022-12-08 20:12:10.8590,-0.14,1.3,0.29,-0.04,-0.1,0.16
2022-12-08 20:12:10.8690,-0.21,0.98,0.48,-0.02,-0.14,0.17
2022-12-08 20:12:10.8790,-0.23,0.53,0.79,-0.0,-0.16,0.18
2022-12-08 20:12:10.8890,-0.31,0.12,1.04,0.01,-0.17,0.17
2022-12-08 20:12:10.8990,-0.37,-0.4,1.34,0.01,-0.17,0.17
2022-12-08 20:12:10.9090,-0.33,-0.96,1.76,0.02,-0.13,0.14
2022-12-08 20:12:10.9180,-0.22,-1.44,2.15,0.03,-0.06,0.09
2022-12-08 20:12:10.9280,-0.08,-1.6,2.41,0.02,0.03,0.01
2022-12-08 20:12:10.9390,0.1,-1.8,2.48,0.01,0.12,-0.08
2022-12-08 20:12:10.9490,0.32,-1.83,2.46,0.06,0.19,-0.13
2022-12-08 20:12:10.9580,0.39,-1.97,2.54,0.16,0.24,-0.1
2022-12-08 20:12:10.9680,0.14,-2.32,2.82,0.23,0.22,-0.07
2022-12-08 20:12:10.9780,-0.35,-2.84,3.34,0.24,0.21,-0.13
2022-12-08 20:12:10.9880,-0.33,-3.11,3.35,0.2,0.29,-0.21
2022-12-08 20:12:10.9980,0.7,-2.99,2.67,0.15,0.39,-0.26
2022-12-08 20:12:11.0080,0.7,-2.99,2.67,0.11,0.48,-0.33
2022-12-08 20:12:11.0180,0.74,-2.76,2.43,0.08,0.5,-0.41
2022-12-08 20:12:11.0280,0.75,-2.22,2.05,0.07,0.46,-0.5
2022-12-08 20:12:11.0380,0.82,-1.4,1.62,0.09,0.42,-0.56
2022-12-08 20:12:11.0480,0.99,-0.72,0.92,0.13,0.41,-0.56
2022-12-08 20:12:11.0580,1.01,-0.1,0.13,0.2,0.32,-0.51
2022-12-08 20:12:11.0680,0.64,0.37,-0.45,0.27,0.24,-0.43
2022-12-08 20:12:11.0780,0.2,0.45,-1.08,0.32,0.16,-0.3
2022-12-08 20:12:11.0880,-0.19,0.54,-1.85,0.33,0.08,-0.16
2022-12-08 20:12:11.0980,-0.52,0.41,-2.28,0.26,0.06,-0.06
2022-12-08 20:12:11.1080,-0.72,0.03,-2.64,0.16,0.05,-0.0
2022-12-08 20:12:11.1180,-0.64,-0.34,-2.26,0.12,0.12,-0.0
2022-12-08 20:12:11.1280,-0.51,-0.82,-1.87,0.08,0.18,-0.03
2022-12-08 20:12:11.1380,-0.37,-1.16,-1.3,0.02,0.2,-0.08
2022-12-08 20:12:11.1480,-0.18,-1.53,-0.53,0.01,0.2,-0.15
2022-12-08 20:12:11.1570,0.0,-1.66,-0.05,0.03,0.22,-0.22
2022-12-08 20:12:11.1670,0.34,-1.37,0.48,0.07,0.25,-0.28
2022-12-08 20:12:11.1780,0.34,-1.37,0.48,0.12,0.31,-0.31
2022-12-08 20:12:11.1870,0.54,-0.99,0.28,0.15,0.34,-0.34
2022-12-08 20:12:11.1970,0.76,-0.52,-0.13,0.17,0.33,-0.35
2022-12-08 20:12:11.2070,0.89,0.05,-0.54,0.19,0.29,-0.34
2022-12-08 20:12:11.2170,0.67,0.88,-1.24,0.21,0.25,-0.32
2022-12-08 20:12:11.2270,0.45,1.2,-1.51,0.2,0.2,-0.29
2022-12-08 20:12:11.2370,0.45,1.2,-1.51,0.17,0.15,-0.27
2022-12-08 20:12:11.2470,0.27,1.42,-1.68,0.15,0.1,-0.23
2022-12-08 20:12:11.2570,0.16,1.64,-1.82,0.13,0.06,-0.2
2022-12-08 20:12:11.2670,0.03,1.87,-1.84,0.09,0.02,-0.17
2022-12-08 20:12:11.2770,-0.13,2.0,-1.84,0.03,-0.02,-0.13
2022-12-08 20:12:11.2870,-0.19,2.14,-1.82,-0.02,-0.05,-0.1
2022-12-08 20:12:11.2970,-0.24,2.14,-1.76,-0.04,-0.06,-0.06
2022-12-08 20:12:11.3070,-0.27,2.18,-1.62,-0.1,-0.07,-0.03
2022-12-08 20:12:11.3170,-0.29,2.1,-1.45,-0.15,-0.06,-0.02
2022-12-08 20:12:11.3270,-0.25,1.99,-1.27,-0.18,-0.04,0.01
2022-12-08 20:12:11.3360,-0.2,1.89,-0.98,-0.19,-0.02,0.01
2022-12-08 20:12:11.3460,-0.08,1.84,-0.74,-0.19,0.01,0.01
2022-12-08 20:12:11.3560,0.1,1.82,-0.58,-0.18,0.06,0.02
2022-12-08 20:12:11.3660,0.23,1.72,-0.55,-0.18,0.07,0.04
2022-12-08 20:12:11.3760,0.28,1.66,-0.48,-0.2,0.06,0.04
2022-12-08 20:12:11.3860,0.34,1.63,-0.48,-0.21,0.03,0.07
2022-12-08 20:12:11.3960,0.39,1.55,-0.38,-0.21,-0.01,0.13
2022-12-08 20:12:11.4060,0.35,1.49,-0.16,-0.2,-0.05,0.18
2022-12-08 20:12:11.4160,0.24,1.36,0.08,-0.17,-0.09,0.23
2022-12-08 20:12:11.4260,0.15,1.21,0.44,-0.14,-0.13,0.29
2022-12-08 20:12:11.4360,0.09,1.04,0.71,-0.12,-0.17,0.34
2022-12-08 20:12:11.4460,0.01,0.84,0.97,-0.1,-0.24,0.37
2022-12-08 20:12:11.4560,-0.07,0.55,1.17,-0.08,-0.31,0.41
2022-12-08 20:12:11.4660,-0.09,0.29,1.39,-0.06,-0.37,0.43
2022-12-08 20:12:11.4760,-0.11,0.01,1.52,-0.06,-0.42,0.42
2022-12-08 20:12:11.4860,-0.15,-0.35,1.76,-0.05,-0.44,0.42
2022-12-08 20:12:11.4960,-0.11,-0.76,2.01,-0.05,-0.42,0.39
2022-12-08 20:12:11.5060,0.12,-1.19,2.35,-0.07,-0.34,0.35
2022-12-08 20:12:11.5160,0.12,-1.19,2.35,-0.07,-0.24,0.29
2022-12-08 20:12:11.5260,0.25,-1.29,2.54,-0.05,-0.11,0.23
2022-12-08 20:12:11.5360,0.39,-1.3,2.66,-0.04,0.0,0.18
2022-12-08 20:12:11.5460,0.5,-1.24,2.65,0.01,0.06,0.17
2022-12-08 20:12:11.5560,0.45,-1.25,2.71,0.1,0.05,0.2
2022-12-08 20:12:11.5660,0.17,-1.53,2.76,0.17,0.0,0.22
2022-12-08 20:12:11.5760,-0.26,-1.99,2.9,0.14,0.02,0.19
2022-12-08 20:12:11.5850,-0.29,-2.27,2.62,0.08,0.1,0.15
2022-12-08 20:12:11.5950,-0.07,-2.39,2.2,0.02,0.17,0.12
2022-12-08 20:12:11.6050,-0.11,-2.41,2.06,-0.02,0.18,0.07
2022-12-08 20:12:11.6150,-0.29,-2.22,1.96,-0.06,0.16,0.01
2022-12-08 20:12:11.6250,-0.27,-1.8,1.81,-0.08,0.14,-0.04
2022-12-08 20:12:11.6350,0.08,-1.27,1.55,-0.02,0.15,-0.08
2022-12-08 20:12:11.6450,0.46,-0.68,1.09,0.02,0.18,-0.1
2022-12-08 20:12:11.6550,0.5,-0.11,-0.17,0.05,0.17,-0.09
2022-12-08 20:12:11.6650,0.5,-0.11,-0.17,0.1,0.12,-0.06
2022-12-08 20:12:11.6750,0.23,-0.04,-0.71,0.14,0.03,-0.0
2022-12-08 20:12:11.6850,-0.01,-0.09,-0.99,0.16,-0.06,0.05
2022-12-08 20:12:11.6950,-0.29,-0.12,-1.3,0.16,-0.1,0.08
2022-12-08 20:12:11.7050,-0.63,-0.25,-1.48,0.12,-0.09,0.11
2022-12-08 20:12:11.7150,-0.97,-0.43,-1.51,0.07,-0.07,0.11
2022-12-08 20:12:11.7240,-1.23,-0.63,-1.5,-0.01,-0.07,0.08
2022-12-08 20:12:11.7350,-1.24,-0.73,-1.4,-0.06,-0.1,0.06
2022-12-08 20:12:11.7450,-1.04,-0.84,-1.19,-0.06,-0.12,0.05
2022-12-08 20:12:11.7550,-0.81,-0.81,-0.97,-0.05,-0.13,0.03
2022-12-08 20:12:11.7650,-0.59,-0.65,-0.88,-0.03,-0.09,0.0
2022-12-08 20:12:11.7740,-0.35,-0.43,-0.97,-0.01,-0.03,-0.02
2022-12-08 20:12:11.7840,-0.13,-0.28,-1.18,0.03,0.01,-0.02
2022-12-08 20:12:11.7940,-0.09,0.04,-1.21,0.07,0.02,-0.02
2022-12-08 20:12:11.8040,-0.09,0.04,-1.21,0.08,0.0,-0.02
2022-12-08 20:12:11.8140,-0.05,0.17,-1.37,0.09,-0.02,-0.01
2022-12-08 20:12:11.8240,0.04,0.39,-1.57,0.09,-0.02,0.01
2022-12-08 20:12:11.8340,0.12,0.59,-1.76,0.07,-0.01,0.02
2022-12-08 20:12:11.8440,0.08,0.83,-1.97,0.02,0.0,0.0
2022-12-08 20:12:11.8540,0.04,0.98,-2.23,-0.03,0.02,-0.0
2022-12-08 20:12:11.8640,0.02,1.2,-2.38,-0.04,0.05,-0.0
2022-12-08 20:12:11.8740,-0.08,1.34,-2.4,-0.05,0.07,0.0
2022-12-08 20:12:11.8840,-0.24,1.5,-2.38,-0.07,0.1,0.02
2022-12-08 20:12:11.8940,-0.36,1.6,-2.34,-0.09,0.13,0.03
2022-12-08 20:12:11.9040,-0.4,1.64,-2.29,-0.12,0.13,0.04
2022-12-08 20:12:11.9140,-0.35,1.67,-2.13,-0.14,0.12,0.06
2022-12-08 20:12:11.9240,-0.28,1.68,-1.99,-0.16,0.07,0.07
2022-12-08 20:12:11.9340,-0.23,1.65,-1.72,-0.17,0.02,0.08
2022-12-08 20:12:11.9440,-0.16,1.54,-1.49,-0.18,-0.02,0.09
2022-12-08 20:12:11.9540,-0.06,1.47,-1.2,-0.19,-0.07,0.09
2022-12-08 20:12:11.9630,0.1,1.4,-1.0,-0.2,-0.09,0.07
2022-12-08 20:12:11.9730,0.25,1.4,-0.89,-0.21,-0.1,0.07
2022-12-08 20:12:11.9830,0.44,1.36,-0.65,-0.17,-0.09,0.06
2022-12-08 20:12:11.9930,0.66,1.53,-0.26,-0.15,-0.06,0.05
2022-12-08 20:12:12.0030,0.66,1.53,-0.26,-0.13,-0.02,0.05
2022-12-08 20:12:12.0130,0.73,1.61,-0.21,-0.13,-0.01,0.05
2022-12-08 20:12:12.0230,0.69,1.63,-0.16,-0.12,-0.07,0.07
2022-12-08 20:12:12.0330,0.52,1.6,-0.01,-0.1,-0.14,0.09
2022-12-08 20:12:12.0430,0.32,1.54,0.11,-0.08,-0.21,0.12
2022-12-08 20:12:12.0530,0.13,1.44,0.32,-0.08,-0.26,0.14
2022-12-08 20:12:12.0630,-0.03,1.25,0.5,-0.07,-0.3,0.15
2022-12-08 20:12:12.0730,-0.24,0.71,1.1,-0.06,-0.33,0.16
2022-12-08 20:12:12.0830,-0.24,0.71,1.1,-0.03,-0.33,0.16
2022-12-08 20:12:12.0930,-0.41,0.35,1.6,-0.01,-0.34,0.16
2022-12-08 20:12:12.1030,-0.61,-0.05,2.11,0.01,-0.32,0.15
2022-12-08 20:12:12.1130,-0.7,-0.46,2.48,0.03,-0.27,0.15
2022-12-08 20:12:12.1230,-0.84,-0.81,2.73,0.04,-0.25,0.14
2022-12-08 20:12:12.1330,-0.81,-1.26,3.09,0.04,-0.21,0.11
2022-12-08 20:12:12.1420,-0.72,-1.47,3.33,0.02,-0.18,0.04
2022-12-08 20:12:12.1520,-0.56,-1.61,3.26,0.01,-0.13,-0.05
2022-12-08 20:12:12.1630,-0.25,-1.61,3.19,0.01,-0.06,-0.14
2022-12-08 20:12:12.1720,0.04,-1.48,3.03,0.07,-0.01,-0.18
2022-12-08 20:12:12.1820,0.06,-1.43,3.05,0.17,0.02,-0.14
2022-12-08 20:12:12.1920,-0.45,-1.72,3.41,0.26,0.0,-0.08
2022-12-08 20:12:12.2020,-1.2,-2.18,3.81,0.26,-0.05,-0.13
2022-12-08 20:12:12.2120,-1.24,-2.41,3.86,0.23,-0.02,-0.2
2022-12-08 20:12:12.2220,-0.55,-2.11,3.48,0.21,0.07,-0.26
2022-12-08 20:12:12.2320,0.11,-1.82,2.92,0.2,0.14,-0.34
2022-12-08 20:12:12.2420,0.67,-0.81,2.01,0.17,0.18,-0.43
2022-12-08 20:12:12.2520,0.67,-0.81,2.01,0.19,0.24,-0.49
2022-12-08 20:12:12.2620,1.03,-0.32,1.13,0.24,0.31,-0.47
2022-12-08 20:12:12.2720,1.07,-0.05,0.47,0.28,0.35,-0.41
2022-12-08 20:12:12.2820,0.72,0.17,-0.14,0.33,0.35,-0.36
2022-12-08 20:12:12.2920,0.17,0.23,-0.76,0.36,0.36,-0.32
2022-12-08 20:12:12.3020,-0.18,0.18,-1.35,0.36,0.4,-0.27
2022-12-08 20:12:12.3120,-0.27,-0.07,-1.81,0.32,0.48,-0.21
2022-12-08 20:12:12.3220,-0.33,-0.43,-2.02,0.26,0.56,-0.19
2022-12-08 20:12:12.3320,-0.45,-0.78,-1.97,0.22,0.61,-0.22
2022-12-08 20:12:12.3410,-0.52,-1.14,-1.69,0.17,0.62,-0.27
2022-12-08 20:12:12.3520,-0.29,-1.4,-1.31,0.17,0.6,-0.31
2022-12-08 20:12:12.3620,-0.05,-1.38,-1.02,0.18,0.54,-0.35
2022-12-08 20:12:12.3720,0.17,-1.44,-0.84,0.23,0.48,-0.38
2022-12-08 20:12:12.3810,0.33,-1.25,-0.94,0.26,0.38,-0.4
2022-12-08 20:12:12.3910,0.66,-1.21,-1.11,0.29,0.33,-0.4
2022-12-08 20:12:12.4020,0.98,-0.75,-1.4,0.3,0.28,-0.41
2022-12-08 20:12:12.4110,1.23,-0.32,-1.77,0.28,0.21,-0.41
2022-12-08 20:12:12.4210,1.39,0.1,-1.96,0.26,0.14,-0.4
2022-12-08 20:12:12.4310,1.46,0.63,-2.28,0.26,0.06,-0.38
2022-12-08 20:12:12.4410,1.19,1.28,-2.65,0.25,-0.02,-0.34
2022-12-08 20:12:12.4510,1.19,1.28,-2.65,0.22,-0.08,-0.28
2022-12-08 20:12:12.4610,1.0,1.55,-2.82,0.2,-0.13,-0.21
2022-12-08 20:12:12.4710,0.77,1.72,-2.89,0.19,-0.15,-0.13
2022-12-08 20:12:12.4810,0.46,1.8,-2.89,0.16,-0.16,-0.05
2022-12-08 20:12:12.4910,0.05,1.76,-2.86,0.08,-0.19,0.03
2022-12-08 20:12:12.5010,-0.37,1.61,-2.83,0.01,-0.21,0.1
2022-12-08 20:12:12.5110,-0.78,1.52,-2.65,-0.08,-0.27,0.14
2022-12-08 20:12:12.5210,-1.09,1.25,-2.35,-0.15,-0.31,0.16
2022-12-08 20:12:12.5310,-1.26,1.13,-1.89,-0.18,-0.29,0.16
2022-12-08 20:12:12.5410,-1.33,0.98,-1.69,-0.24,-0.25,0.13
2022-12-08 20:12:12.5510,-1.23,0.83,-1.34,-0.32,-0.19,0.09
2022-12-08 20:12:12.5610,-0.99,0.93,-1.13,-0.37,-0.1,0.06
2022-12-08 20:12:12.5710,-0.67,1.04,-0.98,-0.4,-0.03,0.04
2022-12-08 20:12:12.5800,-0.36,1.2,-0.87,-0.42,0.01,0.03
2022-12-08 20:12:12.5900,-0.09,1.38,-0.73,-0.44,0.05,0.03
2022-12-08 20:12:12.6000,0.15,1.53,-0.76,-0.45,0.06,0.06
2022-12-08 20:12:12.6100,0.32,1.59,-0.68,-0.44,0.03,0.09
2022-12-08 20:12:12.6200,0.38,1.63,-0.51,-0.41,-0.04,0.13
2022-12-08 20:12:12.6300,0.39,1.63,-0.34,-0.38,-0.12,0.18
2022-12-08 20:12:12.6400,0.42,1.66,-0.16,-0.33,-0.18,0.23
2022-12-08 20:12:12.6500,0.42,1.64,0.06,-0.29,-0.21,0.29
2022-12-08 20:12:12.6600,0.32,1.49,0.34,-0.27,-0.24,0.35
2022-12-08 20:12:12.6700,0.12,1.16,0.72,-0.25,-0.28,0.4
2022-12-08 20:12:12.6800,-0.14,0.71,1.25,-0.22,-0.32,0.45
2022-12-08 20:12:12.6900,-0.34,0.25,1.78,-0.21,-0.34,0.48
2022-12-08 20:12:12.7000,-0.48,-0.28,2.3,-0.21,-0.34,0.49
2022-12-08 20:12:12.7100,-0.53,-0.76,2.72,-0.23,-0.35,0.47
2022-12-08 20:12:12.7200,-0.45,-1.18,3.1,-0.24,-0.33,0.43
2022-12-08 20:12:12.7300,-0.21,-1.39,3.4,-0.22,-0.27,0.37
2022-12-08 20:12:12.7400,0.12,-1.37,3.48,-0.19,-0.19,0.32
2022-12-08 20:12:12.7490,0.49,-1.26,3.58,-0.12,-0.07,0.29
2022-12-08 20:12:12.7590,0.79,-1.08,3.51,-0.01,0.03,0.32
2022-12-08 20:12:12.7700,0.82,-1.14,3.57,0.11,0.03,0.4
2022-12-08 20:12:12.7800,0.36,-1.73,3.9,0.15,-0.08,0.41
2022-12-08 20:12:12.7890,0.04,-2.55,4.03,0.12,-0.14,0.31
2022-12-08 20:12:12.7990,0.04,-2.55,4.03,0.09,-0.12,0.25
2022-12-08 20:12:12.8090,0.3,-2.6,3.79,0.1,-0.08,0.22
2022-12-08 20:12:12.8190,0.15,-2.4,3.24,0.12,-0.07,0.12
2022-12-08 20:12:12.8290,0.28,-1.89,2.84,0.14,-0.07,-0.01
2022-12-08 20:12:12.8390,0.53,-1.35,1.79,0.22,0.01,-0.09
2022-12-08 20:12:12.8490,0.53,-1.35,1.79,0.3,0.09,-0.15
2022-12-08 20:12:12.8590,0.23,-0.63,-0.13,0.37,0.13,-0.17
2022-12-08 20:12:12.8690,-0.12,-0.47,-0.74,0.43,0.11,-0.14
2022-12-08 20:12:12.8790,-0.12,-0.47,-0.74,0.45,0.04,-0.08
2022-12-08 20:12:12.8890,-0.45,-0.44,-1.22,0.44,-0.05,-0.01
2022-12-08 20:12:12.8990,-0.78,-0.37,-1.58,0.39,-0.07,0.05
2022-12-08 20:12:12.9090,-1.05,-0.47,-1.94,0.27,-0.09,0.09
2022-12-08 20:12:12.9190,-1.22,-0.57,-2.09,0.15,-0.1,0.12
2022-12-08 20:12:12.9290,-1.34,-0.67,-1.98,0.07,-0.1,0.13
2022-12-08 20:12:12.9390,-1.34,-0.86,-1.79,-0.01,-0.12,0.11
2022-12-08 20:12:12.9490,-1.24,-0.95,-1.54,-0.04,-0.13,0.09
2022-12-08 20:12:12.9590,-1.06,-0.97,-1.32,-0.03,-0.11,0.07
2022-12-08 20:12:12.9690,-0.81,-0.87,-1.24,-0.0,-0.08,0.03
2022-12-08 20:12:12.9780,-0.55,-0.65,-1.27,0.01,0.0,-0.0
2022-12-08 20:12:12.9880,-0.29,-0.46,-1.6,0.0,0.06,-0.01
2022-12-08 20:12:12.9990,-0.16,0.03,-2.08,0.0,0.1,-0.02
2022-12-08 20:12:13.0090,-0.16,0.03,-2.08,-0.02,0.09,-0.02
2022-12-08 20:12:13.0180,-0.11,0.32,-2.35,-0.02,0.02,-0.01
2022-12-08 20:12:13.0280,-0.13,0.59,-2.43,-0.02,-0.03,0.0
2022-12-08 20:12:13.0380,-0.05,0.78,-2.68,-0.05,-0.09,0.03
2022-12-08 20:12:13.0480,0.05,1.11,-2.8,-0.07,-0.15,0.06
2022-12-08 20:12:13.0580,0.11,1.29,-2.85,-0.08,-0.17,0.1
2022-12-08 20:12:13.0680,0.16,1.51,-2.92,-0.08,-0.18,0.13
2022-12-08 20:12:13.0780,0.19,1.66,-3.01,-0.1,-0.2,0.16
2022-12-08 20:12:13.0880,0.09,1.71,-2.95,-0.15,-0.21,0.18
2022-12-08 20:12:13.0980,-0.04,1.65,-2.93,-0.19,-0.24,0.19
2022-12-08 20:12:13.1080,-0.2,1.56,-2.79,-0.2,-0.26,0.21
2022-12-08 20:12:13.1180,-0.34,1.5,-2.42,-0.21,-0.28,0.23
2022-12-08 20:12:13.1280,-0.46,1.41,-2.02,-0.23,-0.26,0.23
2022-12-08 20:12:13.1380,-0.41,1.3,-1.73,-0.24,-0.24,0.22
2022-12-08 20:12:13.1480,-0.25,1.23,-1.43,-0.22,-0.18,0.2
2022-12-08 20:12:13.1570,-0.05,1.19,-1.13,-0.22,-0.11,0.16
2022-12-08 20:12:13.1680,0.18,1.1,-0.81,-0.23,-0.05,0.13
2022-12-08 20:12:13.1770,0.3,1.12,-0.62,-0.22,-0.01,0.1
2022-12-08 20:12:13.1870,0.34,1.06,-0.39,-0.22,-0.0,0.07
2022-12-08 20:12:13.1970,0.4,1.08,-0.24,-0.22,-0.01,0.05
2022-12-08 20:12:13.2070,0.51,1.16,-0.1,-0.21,-0.01,0.03
2022-12-08 20:12:13.2170,0.62,1.21,0.02,-0.2,-0.02,0.02
2022-12-08 20:12:13.2270,0.66,1.27,0.19,-0.18,-0.03,0.02
2022-12-08 20:12:13.2370,0.62,1.23,0.45,-0.14,-0.03,0.0
2022-12-08 20:12:13.2470,0.58,1.23,0.64,-0.1,-0.02,-0.01
2022-12-08 20:12:13.2570,0.45,1.17,1.1,-0.07,-0.03,-0.01
2022-12-08 20:12:13.2670,0.29,1.08,1.29,-0.04,-0.04,-0.02
2022-12-08 20:12:13.2770,0.29,0.8999274194240571,1.51,-0.0,-0.05,-0.01
2022-12-08 20:12:13.2870,0.11,0.89,1.51,0.04,-0.07,0.01
2022-12-08 20:12:13.2970,-0.08,0.65,1.74,0.08,-0.1,0.02
2022-12-08 20:12:13.3070,-0.28,0.33,2.0,0.11,-0.13,0.03
2022-12-08 20:12:13.3170,-0.4,-0.47,2.32,0.12,-0.14,0.04
2022-12-08 20:12:13.3270,-0.4,-0.47,2.32,0.12,-0.16,0.04
2022-12-08 20:12:13.3370,-0.31,-1.03,2.59,0.11,-0.17,0.01
2022-12-08 20:12:13.3470,-0.31,-1.03,2.59,0.09,-0.12,0.0
2022-12-08 20:12:13.3570,-0.24,-1.1,2.47,0.08,-0.16,-0.09
2022-12-08 20:12:13.3670,-0.15,-1.77,2.6,0.15,-0.05,-0.13
2022-12-08 20:12:13.3760,-0.15,-1.77,2.6,0.25,0.01,-0.07
2022-12-08 20:12:13.3860,-0.63,-1.89,3.1,0.39,0.01,-0.03
2022-12-08 20:12:13.3970,-1.51,-3.12,4.07,0.36,0.12,-0.01
2022-12-08 20:12:13.4060,-1.7,-2.95,3.82,0.22,0.17,-0.11
2022-12-08 20:12:13.4160,-1.24,-3.06,4.11,0.12,0.26,-0.21
2022-12-08 20:12:13.4260,-0.72,-3.13,3.84,0.11,0.36,-0.33
2022-12-08 20:12:13.4360,-0.3,-2.76,3.45,0.11,0.43,-0.45
2022-12-08 20:12:13.4460,-0.05,-1.81,2.83,0.13,0.49,-0.57
2022-12-08 20:12:13.4560,0.31,-0.78,1.97,0.2,0.56,-0.63
2022-12-08 20:12:13.4660,0.79,-0.05,0.87,0.27,0.6,-0.62
2022-12-08 20:12:13.4760,0.84,0.65,-0.06,0.36,0.54,-0.58
2022-12-08 20:12:13.4860,0.5,0.85,-0.69,0.43,0.42,-0.45
2022-12-08 20:12:13.4960,0.04,1.0,-1.25,0.46,0.26,-0.3
2022-12-08 20:12:13.5060,-0.34,0.99,-1.85,0.42,0.13,-0.14
2022-12-08 20:12:13.5160,-0.6,0.81,-2.29,0.35,0.07,0.01
2022-12-08 20:12:13.5260,-0.68,0.34,-2.35,0.29,0.05,0.1
2022-12-08 20:12:13.5360,-0.7,-0.11,-1.96,0.23,0.07,0.12
2022-12-08 20:12:13.5460,-0.65,-0.54,-1.32,0.2,0.09,0.08
2022-12-08 20:12:13.5560,-0.45,-1.06,-0.62,0.2,0.12,0.02
2022-12-08 20:12:13.5660,-0.24,-1.36,-0.11,0.2,0.16,-0.06
2022-12-08 20:12:13.5750,0.01,-1.52,0.15,0.2,0.22,-0.15
2022-12-08 20:12:13.5860,0.23,-1.49,0.18,0.22,0.29,-0.22
2022-12-08 20:12:13.5960,0.41,-1.33,0.01,0.27,0.37,-0.26
2022-12-08 20:12:13.6050,0.55,-1.07,-0.29,0.32,0.39,-0.31
2022-12-08 20:12:13.6150,0.75,-0.68,-0.62,0.33,0.4,-0.33
2022-12-08 20:12:13.6250,0.95,-0.24,-0.98,0.3,0.39,-0.35
2022-12-08 20:12:13.6360,1.0,0.58,-2.05,0.28,0.34,-0.33
2022-12-08 20:12:13.6450,1.0,0.58,-2.05,0.25,0.25,-0.3
2022-12-08 20:12:13.6550,0.94,0.96,-2.44,0.2,0.16,-0.27
2022-12-08 20:12:13.6650,0.85,1.18,-2.72,0.15,0.09,-0.22
2022-12-08 20:12:13.6750,0.77,1.45,-2.89,0.12,0.04,-0.18
2022-12-08 20:12:13.6850,0.59,1.6,-2.89,0.09,0.02,-0.13
2022-12-08 20:12:13.6950,0.36,1.69,-2.88,0.06,0.01,-0.08
2022-12-08 20:12:13.7050,0.11,1.69,-2.83,0.03,-0.01,-0.03
2022-12-08 20:12:13.7150,-0.11,1.59,-2.73,-0.01,-0.01,0.02
2022-12-08 20:12:13.7250,-0.26,1.53,-2.59,-0.05,-0.01,0.06
2022-12-08 20:12:13.7350,-0.44,1.34,-2.41,-0.11,-0.04,0.11
2022-12-08 20:12:13.7450,-0.61,1.22,-2.26,-0.18,-0.08,0.11
2022-12-08 20:12:13.7550,-0.65,1.07,-2.12,-0.24,-0.13,0.1
2022-12-08 20:12:13.7640,-0.46,0.87,-1.98,-0.29,-0.16,0.1
2022-12-08 20:12:13.7750,-0.2,0.88,-1.68,-0.31,-0.17,0.08
2022-12-08 20:12:13.7840,-0.05,0.85,-1.43,-0.33,-0.16,0.07
2022-12-08 20:12:13.7950,-0.01,0.85,-1.15,-0.35,-0.14,0.09
2022-12-08 20:12:13.8040,0.11,0.89,-0.93,-0.35,-0.11,0.11
2022-12-08 20:12:13.8140,0.22,0.91,-0.85,-0.35,-0.12,0.14
2022-12-08 20:12:13.8240,0.42,0.96,-0.56,-0.35,-0.13,0.17
2022-12-08 20:12:13.8340,0.42,0.96,-0.56,-0.35,-0.16,0.2
2022-12-08 20:12:13.8440,0.5,0.94,-0.38,-0.35,-0.18,0.21
2022-12-08 20:12:13.8540,0.53,1.0,-0.17,-0.33,-0.22,0.23
2022-12-08 20:12:13.8640,0.5,1.01,0.05,-0.32,-0.27,0.26
2022-12-08 20:12:13.8740,0.38,0.95,0.3,-0.31,-0.32,0.29
2022-12-08 20:12:13.8840,0.17,0.86,0.56,-0.31,-0.36,0.34
2022-12-08 20:12:13.8940,-0.08,0.61,0.86,-0.3,-0.39,0.39
2022-12-08 20:12:13.9040,-0.3,0.31,1.23,-0.27,-0.4,0.44
2022-12-08 20:12:13.9140,-0.53,-0.04,1.65,-0.25,-0.39,0.48
2022-12-08 20:12:13.9240,-0.71,-0.9410900634527207,2.57,-0.24,-0.38,0.52
2022-12-08 20:12:13.9340,-0.75,-0.95,2.57,-0.25,-0.35,0.52
2022-12-08 20:12:13.9440,-0.59,-1.37,2.92,-0.27,-0.31,0.48
2022-12-08 20:12:13.9540,-0.32,-1.54,3.24,-0.31,-0.22,0.47
2022-12-08 20:12:13.9640,0.11,-1.36,3.25,-0.26,-0.09,0.36
2022-12-08 20:12:13.9730,0.53,-1.9,3.59,-0.16,0.03,0.34
2022-12-08 20:12:13.9840,0.47,-1.91,3.61,-0.08,0.02,0.36
2022-12-08 20:12:13.9930,0.07,-2.35,4.4,-0.09,0.01,0.29
2022-12-08 20:12:14.0030,-0.12,-2.61,4.42,-0.15,0.05,0.19
2022-12-08 20:12:14.0130,0.27,-2.47,4.16,-0.15,0.09,0.12
2022-12-08 20:12:14.0230,0.69,-2.3,4.05,-0.06,0.05,0.08
2022-12-08 20:12:14.0330,0.86,-2.02,3.89,0.03,-0.05,0.04
2022-12-08 20:12:14.0430,1.05,-1.57,3.59,0.12,-0.11,-0.0
2022-12-08 20:12:14.0530,1.39,-0.88,2.77,0.19,-0.08,-0.06
2022-12-08 20:12:14.0630,1.62,-0.36,1.63,0.24,-0.03,-0.1
2022-12-08 20:12:14.0730,1.55,0.09,0.46,0.29,-0.03,-0.11
2022-12-08 20:12:14.0830,1.11,0.37,-0.5,0.35,-0.07,-0.08
2022-12-08 20:12:14.0930,0.59,0.41,-1.17,0.4,-0.16,-0.03
2022-12-08 20:12:14.1030,0.02,0.41,-1.63,0.41,-0.25,0.04
2022-12-08 20:12:14.1130,-0.57,0.25,-1.85,0.36,-0.32,0.11
2022-12-08 20:12:14.1230,-1.19,0.0,-1.94,0.29,-0.37,0.16
2022-12-08 20:12:14.1330,-1.75,-0.29,-1.8,0.21,-0.37,0.19
2022-12-08 20:12:14.1430,-2.04,-0.54,-1.53,0.11,-0.35,0.18
2022-12-08 20:12:14.1530,-1.98,-0.64,-1.17,0.08,-0.3,0.16
2022-12-08 20:12:14.1630,-1.72,-0.79,-0.77,0.04,-0.23,0.13
2022-12-08 20:12:14.1720,-1.39,-0.73,-0.62,0.02,-0.19,0.07
2022-12-08 20:12:14.1820,-1.2,-0.76,-0.31,0.04,-0.13,0.03
2022-12-08 20:12:14.1930,-0.86,-0.62,-0.39,0.07,-0.06,-0.01
2022-12-08 20:12:14.2020,-0.51,-0.4,-0.57,0.11,0.0,-0.05
2022-12-08 20:12:14.2120,-0.22,-0.14,-0.75,0.13,0.06,-0.08
2022-12-08 20:12:14.2220,0.01,0.17,-1.1,0.14,0.08,-0.09
2022-12-08 20:12:14.2320,0.13,0.42,-1.39,0.14,0.07,-0.09
2022-12-08 20:12:14.2420,0.25,0.62,-1.7,0.12,0.05,-0.07
2022-12-08 20:12:14.2520,0.42,0.83,-2.04,0.09,0.0,-0.03
2022-12-08 20:12:14.2620,0.47,1.0,-2.27,0.08,-0.04,-0.01
2022-12-08 20:12:14.2720,0.37,1.12,-2.51,0.07,-0.06,0.0
2022-12-08 20:12:14.2820,0.38,1.21,-2.67,0.07,-0.05,0.01
2022-12-08 20:12:14.2920,0.35,1.31,-2.72,0.06,-0.01,0.02
2022-12-08 20:12:14.3020,0.17,1.28,-2.79,0.03,0.03,0.02
2022-12-08 20:12:14.3120,-0.05,1.3,-2.74,-0.01,0.07,-0.0
2022-12-08 20:12:14.3220,-0.24,1.2,-2.77,-0.04,0.09,-0.01
2022-12-08 20:12:14.3320,-0.36,1.2,-2.55,-0.06,0.13,-0.03
2022-12-08 20:12:14.3420,-0.35,1.19,-2.46,-0.1,0.18,-0.05
2022-12-08 20:12:14.3520,-0.26,1.23,-2.34,-0.13,0.22,-0.08
2022-12-08 20:12:14.3620,-0.09,1.24,-2.19,-0.14,0.23,-0.09
2022-12-08 20:12:14.3720,0.14,1.34,-1.98,-0.15,0.21,-0.1
2022-12-08 20:12:14.3820,0.35,1.4,-1.78,-0.15,0.2,-0.11
2022-12-08 20:12:14.3920,0.64,1.5,-1.72,-0.16,0.19,-0.1
2022-12-08 20:12:14.4010,0.86,1.7,-1.51,-0.16,0.18,-0.1
2022-12-08 20:12:14.4110,0.97,1.78,-1.33,-0.15,0.17,-0.08
2022-12-08 20:12:14.4210,1.01,1.88,-1.06,-0.14,0.13,-0.04
2022-12-08 20:12:14.4310,0.88,1.88,-0.75,-0.13,0.08,0.0
2022-12-08 20:12:14.4410,0.69,1.81,-0.41,-0.08,0.03,0.04
2022-12-08 20:12:14.4510,0.47,1.7,-0.02,-0.04,-0.01,0.06
2022-12-08 20:12:14.4610,0.24,1.55,0.4,-0.01,-0.04,0.07
2022-12-08 20:12:14.4710,0.07,1.4,0.75,0.01,-0.05,0.08
2022-12-08 20:12:14.4810,-0.12,1.24,1.14,0.07,-0.06,0.07
2022-12-08 20:12:14.4910,-0.36,0.92,1.62,0.11,-0.03,0.07
2022-12-08 20:12:14.5010,-0.54,0.58,2.02,0.11,-0.03,0.04
2022-12-08 20:12:14.5110,-0.71,0.33,2.46,0.08,-0.03,0.03
2022-12-08 20:12:14.5210,-0.96,0.07,2.86,0.06,0.0,0.03
2022-12-08 20:12:14.5310,-1.19,-0.41,3.23,0.08,0.04,-0.01
2022-12-08 20:12:14.5410,-1.23,-1.21,3.64,0.08,0.01,-0.04
2022-12-08 20:12:14.5510,-1.4,-1.23,3.93,0.09,-0.02,-0.08
2022-12-08 20:12:14.5610,-1.23,-1.45,4.03,0.12,0.0,-0.13
2022-12-08 20:12:14.5710,-0.86,-1.78,3.82,0.18,0.04,-0.1
2022-12-08 20:12:14.5810,-1.24,-2.43,4.21,0.28,0.04,-0.03
2022-12-08 20:12:14.5910,-1.24,-2.43,4.21,0.31,0.01,-0.03
2022-12-08 20:12:14.6000,-1.64,-3.05,4.72,0.29,0.05,-0.1
2022-12-08 20:12:14.6100,-1.32,-3.3,4.69,0.24,0.23,-0.14
2022-12-08 20:12:14.6200,-0.83,-3.14,4.3,0.15,0.33,-0.25
2022-12-08 20:12:14.6300,-0.46,-2.73,4.08,0.12,0.43,-0.41
2022-12-08 20:12:14.6400,0.04,-2.17,3.4,0.12,0.56,-0.55
2022-12-08 20:12:14.6500,0.76,-1.14,2.24,0.14,0.71,-0.64
2022-12-08 20:12:14.6600,1.3,-0.28,0.96,0.2,0.79,-0.64
2022-12-08 20:12:14.6700,1.29,0.33,-0.1,0.26,0.75,-0.6
2022-12-08 20:12:14.6800,0.91,0.64,-0.9,0.34,0.6,-0.49
2022-12-08 20:12:14.6900,0.46,0.81,-1.46,0.39,0.41,-0.37
2022-12-08 20:12:14.7000,0.13,0.83,-2.0,0.39,0.29,-0.22
2022-12-08 20:12:14.7100,-0.1,0.63,-2.54,0.31,0.25,-0.08
2022-12-08 20:12:14.7200,-0.24,0.15,-2.66,0.2,0.26,0.01
2022-12-08 20:12:14.7300,-0.3,-0.31,-2.52,0.12,0.24,0.03
2022-12-08 20:12:14.7400,-0.23,-0.9,-1.94,0.11,0.21,0.01
2022-12-08 20:12:14.7500,-0.06,-1.36,-1.39,0.09,0.18,-0.04
2022-12-08 20:12:14.7600,0.2,-1.76,-0.88,0.08,0.18,-0.12
2022-12-08 20:12:14.7700,0.53,-1.84,-0.58,0.08,0.25,-0.23
2022-12-08 20:12:14.7800,0.8,-1.7,-0.62,0.09,0.34,-0.31
2022-12-08 20:12:14.7900,0.99,-1.45,-0.76,0.12,0.39,-0.37
2022-12-08 20:12:14.7990,1.15,-1.04,-0.99,0.17,0.38,-0.4
2022-12-08 20:12:14.8090,1.28,-0.59,-1.21,0.2,0.33,-0.42
2022-12-08 20:12:14.8190,1.33,-0.12,-1.53,0.22,0.27,-0.4
2022-12-08 20:12:14.8290,1.3,0.29,-1.89,0.21,0.17,-0.35
2022-12-08 20:12:14.8390,1.16,0.6,-2.13,0.18,0.05,-0.3
2022-12-08 20:12:14.8490,1.03,0.93,-2.28,0.15,-0.06,-0.24
2022-12-08 20:12:14.8590,0.93,1.21,-2.46,0.12,-0.14,-0.18
2022-12-08 20:12:14.8690,0.73,1.41,-2.44,0.11,-0.2,-0.12
2022-12-08 20:12:14.8790,0.44,1.51,-2.39,0.09,-0.23,-0.08
2022-12-08 20:12:14.8890,0.11,1.53,-2.29,0.05,-0.28,-0.03
2022-12-08 20:12:14.8990,-0.15,1.46,-2.23,0.01,-0.3,0.02
2022-12-08 20:12:14.9090,-0.43,1.37,-2.09,-0.02,-0.3,0.05
2022-12-08 20:12:14.9190,-0.65,1.37,-1.91,-0.06,-0.3,0.08
2022-12-08 20:12:14.9290,-0.84,1.33,-1.7,-0.12,-0.29,0.09
2022-12-08 20:12:14.9390,-0.86,1.3,-1.56,-0.17,-0.27,0.09
2022-12-08 20:12:14.9490,-0.75,1.38,-1.38,-0.21,-0.25,0.07
2022-12-08 20:12:14.9590,-0.56,1.31,-1.26,-0.25,-0.24,0.05
2022-12-08 20:12:14.9690,-0.17,1.19,-0.67,-0.26,-0.22,0.05
2022-12-08 20:12:14.9790,0.09,1.12,-0.4,-0.28,-0.19,0.04
2022-12-08 20:12:14.9880,0.09,1.12,-0.4,-0.27,-0.16,0.04
2022-12-08 20:12:14.9990,0.63,1.29,-0.15,-0.26,-0.13,0.03
2022-12-08 20:12:15.0080,0.63,1.29,-0.15,-0.23,-0.11,0.02
2022-12-08 20:12:15.0180,0.92,1.54,-0.09,-0.18,-0.07,0.02
2022-12-08 20:12:15.0280,0.92,1.54,-0.09,-0.14,-0.04,0.03
2022-12-08 20:12:15.0380,0.68,1.51,-0.04,-0.13,-0.05,0.06
2022-12-08 20:12:15.0480,0.68,1.51,-0.04,-0.11,-0.05,0.1
2022-12-08 20:12:15.0580,0.45,1.48,0.02,-0.07,-0.06,0.15
2022-12-08 20:12:15.0680,0.18,1.32,0.07,-0.07,-0.13,0.2
2022-12-08 20:12:15.0780,-0.13,1.05,0.48,-0.06,-0.16,0.25
2022-12-08 20:12:15.0880,-0.38,0.76,0.7,-0.04,-0.2,0.29
2022-12-08 20:12:15.0980,-0.54,0.34,0.96,-0.03,-0.25,0.31
2022-12-08 20:12:15.1080,-0.71,-0.49,1.79,-0.04,-0.24,0.33
2022-12-08 20:12:15.1180,-0.71,-0.49,1.79,-0.08,-0.23,0.33
2022-12-08 20:12:15.1280,-0.66,-0.8,2.19,-0.14,-0.19,0.3
2022-12-08 20:12:15.1380,-0.51,-0.89,2.45,-0.19,-0.11,0.26
2022-12-08 20:12:15.1480,-0.29,-0.9,2.51,-0.21,-0.01,0.23
2022-12-08 20:12:15.1580,-0.23,-0.75,2.56,-0.16,0.06,0.25
2022-12-08 20:12:15.1680,-0.28,-0.85,2.65,-0.05,0.03,0.37
2022-12-08 20:12:15.1770,-1.13,-1.96,3.57,0.03,-0.12,0.46
2022-12-08 20:12:15.1880,-1.13,-1.96,3.57,0.01,-0.29,0.42
2022-12-08 20:12:15.1980,-1.03,-2.27,3.79,-0.07,-0.34,0.37
2022-12-08 20:12:15.2070,-0.54,-2.45,3.54,-0.09,-0.36,0.33
2022-12-08 20:12:15.2170,-0.12,-2.5,3.36,-0.06,-0.4,0.27
2022-12-08 20:12:15.2270,0.31,-1.82,3.04,-0.02,-0.46,0.19
2022-12-08 20:12:15.2370,0.31,-1.82,3.04,0.07,-0.41,0.11
2022-12-08 20:12:15.2470,0.8,-1.26,2.16,0.19,-0.28,0.05
2022-12-08 20:12:15.2570,0.92,-0.86,1.01,0.25,-0.18,0.03
2022-12-08 20:12:15.2670,0.47,-0.78,0.18,0.29,-0.14,0.03
2022-12-08 20:12:15.2770,-0.1,-0.68,-0.42,0.32,-0.16,0.06
2022-12-08 20:12:15.2870,-0.65,-0.77,-0.92,0.34,-0.23,0.11
2022-12-08 20:12:15.2970,-1.25,-0.96,-1.16,0.32,-0.3,0.16
2022-12-08 20:12:15.3070,-1.85,-1.18,-1.32,0.23,-0.34,0.18
2022-12-08 20:12:15.3170,-2.31,-1.43,-1.21,0.1,-0.32,0.17
2022-12-08 20:12:15.3270,-2.31,-1.43,-1.21,-0.0,-0.25,0.16
2022-12-08 20:12:15.3370,-2.1,-1.37,-0.98,-0.05,-0.19,0.14
2022-12-08 20:12:15.3470,-1.88,-1.34,-0.68,-0.06,-0.12,0.11
2022-12-08 20:12:15.3570,-1.56,-1.11,-0.54,-0.05,-0.04,0.07
2022-12-08 20:12:15.3670,-1.18,-0.85,-0.64,-0.04,0.03,0.04
2022-12-08 20:12:15.3760,-0.55,-0.35,-1.04,-0.03,0.09,0.01
2022-12-08 20:12:15.3870,-0.55,-0.35,-1.04,-0.02,0.09,0.01
2022-12-08 20:12:15.3960,-0.34,-0.03,-1.21,-0.01,0.06,0.0
2022-12-08 20:12:15.4060,-0.24,0.21,-1.36,-0.01,0.01,0.02
2022-12-08 20:12:15.4160,-0.07,0.49,-1.62,-0.02,-0.05,0.04
2022-12-08 20:12:15.4260,0.1,0.83,-1.85,-0.04,-0.11,0.07
2022-12-08 20:12:15.4360,0.26,1.14,-2.09,-0.06,-0.15,0.09
2022-12-08 20:12:15.4460,0.58,1.74,-2.45,-0.06,-0.18,0.09
2022-12-08 20:12:15.4560,0.68,1.99,-2.55,-0.05,-0.17,0.09
2022-12-08 20:12:15.4660,0.68,1.99,-2.55,-0.04,-0.13,0.1
2022-12-08 20:12:15.4760,0.67,2.19,-2.62,-0.05,-0.11,0.11
2022-12-08 20:12:15.4860,0.53,2.23,-2.64,-0.06,-0.09,0.12
2022-12-08 20:12:15.4960,0.37,2.24,-2.58,-0.07,-0.09,0.13
2022-12-08 20:12:15.5060,0.23,2.19,-2.41,-0.07,-0.11,0.16
2022-12-08 20:12:15.5160,0.04,2.09,-2.21,-0.08,-0.11,0.16
2022-12-08 20:12:15.5260,-0.11,2.0,-2.04,-0.1,-0.11,0.16
2022-12-08 20:12:15.5360,-0.14,1.92,-1.84,-0.12,-0.13,0.16
2022-12-08 20:12:15.5460,-0.18,1.82,-1.59,-0.14,-0.14,0.16
2022-12-08 20:12:15.5560,-0.13,1.72,-1.13,-0.16,-0.15,0.16
2022-12-08 20:12:15.5660,-0.13,1.72,-1.13,-0.15,-0.17,0.16
2022-12-08 20:12:15.5760,-0.1,1.72,-0.92,-0.13,-0.16,0.17
2022-12-08 20:12:15.5860,-0.1,1.67,-0.76,-0.09,-0.15,0.17
2022-12-08 20:12:15.5960,-0.15,1.63,-0.64,-0.1,-0.14,0.19
2022-12-08 20:12:15.6050,-0.16,1.43,-0.48,-0.09,-0.14,0.22
2022-12-08 20:12:15.6150,-0.21,1.24,-0.37,-0.1,-0.2,0.21
2022-12-08 20:12:15.6250,-0.26,0.97,-0.17,-0.09,-0.23,0.21
2022-12-08 20:12:15.6350,-0.27,0.79,0.03,-0.09,-0.27,0.22
2022-12-08 20:12:15.6450,-0.3,0.76,0.24,-0.13,-0.28,0.27
2022-12-08 20:12:15.6550,-0.52,0.78,0.4,-0.13,-0.29,0.21
2022-12-08 20:12:15.6650,-0.51,0.2,0.99,-0.15,-0.3,0.19
2022-12-08 20:12:15.6750,-0.61,-0.09,1.37,-0.12,-0.3,0.16
2022-12-08 20:12:15.6850,-0.62,-0.39,1.55,-0.07,-0.27,0.16
2022-12-08 20:12:15.6950,-0.62,-0.39,1.55,-0.07,-0.24,0.17
2022-12-08 20:12:15.7050,-0.63,-1.03,2.13,-0.04,-0.21,0.17
2022-12-08 20:12:15.7150,-0.63,-1.03,2.13,-0.01,-0.18,0.15
2022-12-08 20:12:15.7250,-0.54,-1.39,2.43,-0.01,-0.14,0.12
2022-12-08 20:12:15.7350,-0.44,-1.7,2.7,-0.04,-0.09,0.06
2022-12-08 20:12:15.7450,-0.34,-1.72,2.77,-0.06,-0.04,-0.02
2022-12-08 20:12:15.7550,-0.12,-1.72,2.8,-0.07,0.03,-0.1
2022-12-08 20:12:15.7650,0.09,-1.76,2.79,-0.03,0.07,-0.13
2022-12-08 20:12:15.7750,0.0,-1.94,3.05,0.05,0.08,-0.12
2022-12-08 20:12:15.7850,-0.47,-2.41,3.53,0.07,0.05,-0.16
2022-12-08 20:12:15.7950,-0.66,-2.75,3.9,0.07,0.12,-0.22
2022-12-08 20:12:15.8050,-0.21,-2.57,3.7,0.08,0.22,-0.26
2022-12-08 20:12:15.8150,0.25,-2.34,3.37,0.11,0.32,-0.32
2022-12-08 20:12:15.8240,0.4,-1.99,3.06,0.1,0.38,-0.41
2022-12-08 20:12:15.8340,0.65,-1.4,2.53,0.08,0.45,-0.51
2022-12-08 20:12:15.8440,1.03,-0.69,1.67,0.11,0.5,-0.56
2022-12-08 20:12:15.8540,1.34,-0.11,0.77,0.17,0.54,-0.58
2022-12-08 20:12:15.8640,1.31,0.37,-0.15,0.21,0.51,-0.57
2022-12-08 20:12:15.8740,1.0,0.64,-0.79,0.26,0.45,-0.51
2022-12-08 20:12:15.8840,0.58,0.67,-1.29,0.32,0.42,-0.41
2022-12-08 20:12:15.8940,0.26,0.7,-1.94,0.34,0.4,-0.29
2022-12-08 20:12:15.9040,-0.12,0.48,-2.2,0.32,0.4,-0.16
2022-12-08 20:12:15.9140,-0.47,0.01,-2.27,0.26,0.39,-0.06
2022-12-08 20:12:15.9240,-0.66,-0.53,-2.2,0.22,0.31,-0.02
2022-12-08 20:12:15.9340,-0.7,-1.44,-1.34,0.16,0.19,-0.03
2022-12-08 20:12:15.9440,-0.7,-1.44,-1.34,0.13,0.12,-0.06
2022-12-08 20:12:15.9540,-0.5,-1.64,-1.04,0.11,0.09,-0.11
2022-12-08 20:12:15.9640,-0.35,-1.63,-0.87,0.11,0.1,-0.17
2022-12-08 20:12:15.9740,-0.25,-1.46,-0.73,0.13,0.16,-0.2
2022-12-08 20:12:15.9840,-0.03,-1.19,-0.93,0.15,0.21,-0.22
2022-12-08 20:12:15.9940,0.24,-0.77,-1.15,0.15,0.24,-0.25
2022-12-08 20:12:16.0040,0.55,-0.27,-1.47,0.16,0.24,-0.26
2022-12-08 20:12:16.0140,0.88,0.3,-1.7,0.17,0.2,-0.25
2022-12-08 20:12:16.0230,1.01,0.69,-1.87,0.16,0.14,-0.25
2022-12-08 20:12:16.0330,1.02,1.07,-2.03,0.15,0.09,-0.23
2022-12-08 20:12:16.0430,1.02,1.39,-2.25,0.13,0.07,-0.2
2022-12-08 20:12:16.0530,0.95,1.69,-2.33,0.11,0.07,-0.17
2022-12-08 20:12:16.0630,0.82,1.9,-2.28,0.09,0.09,-0.13
2022-12-08 20:12:16.0730,0.68,1.99,-2.23,0.06,0.1,-0.11
2022-12-08 20:12:16.0830,0.48,1.98,-2.07,0.04,0.11,-0.08
2022-12-08 20:12:16.0930,0.28,1.96,-1.92,0.02,0.12,-0.05
2022-12-08 20:12:16.1030,0.0,1.87,-1.73,-0.01,0.12,-0.03
2022-12-08 20:12:16.1130,-0.26,1.74,-1.58,-0.04,0.12,-0.03
2022-12-08 20:12:16.1230,-0.43,1.62,-1.4,-0.06,0.15,-0.02
2022-12-08 20:12:16.1330,-0.48,1.48,-1.29,-0.08,0.16,-0.02
2022-12-08 20:12:16.1430,-0.48,1.37,-1.12,-0.12,0.16,-0.02
2022-12-08 20:12:16.1530,-0.47,1.28,-0.96,-0.16,0.16,-0.01
2022-12-08 20:12:16.1630,-0.34,1.21,-0.83,-0.19,0.13,-0.0
2022-12-08 20:12:16.1730,0.25,1.27,-0.52,-0.21,0.1,0.01
2022-12-08 20:12:16.1830,0.25,1.27,-0.52,-0.23,0.08,0.02
2022-12-08 20:12:16.1930,0.54,1.31,-0.46,-0.25,0.07,0.03
2022-12-08 20:12:16.2030,0.73,1.35,-0.27,-0.24,0.05,0.04
2022-12-08 20:12:16.2130,0.8,1.33,-0.12,-0.22,0.02,0.06
2022-12-08 20:12:16.2220,0.79,1.16,0.17,-0.2,-0.02,0.1
2022-12-08 20:12:16.2320,0.68,1.04,0.52,-0.16,-0.08,0.14
2022-12-08 20:12:16.2420,0.54,0.82,0.75,-0.14,-0.18,0.18
2022-12-08 20:12:16.2520,0.48,0.53,1.0,-0.12,-0.3,0.22
2022-12-08 20:12:16.2620,0.44,0.28,1.26,-0.1,-0.38,0.25
2022-12-08 20:12:16.2720,0.46,-0.04,1.52,-0.08,-0.42,0.27
2022-12-08 20:12:16.2820,0.44,-0.34,1.69,-0.07,-0.41,0.27
2022-12-08 20:12:16.2920,0.32,-0.69,1.9,-0.06,-0.38,0.27
2022-12-08 20:12:16.3020,0.25,-1.0,2.14,-0.06,-0.32,0.26
2022-12-08 20:12:16.3120,0.22,-1.23,2.3,-0.08,-0.26,0.21
2022-12-08 20:12:16.3220,0.26,-1.42,2.38,-0.09,-0.2,0.17
2022-12-08 20:12:16.3320,0.43,-1.48,2.67,-0.06,-0.12,0.13
2022-12-08 20:12:16.3420,0.43,-1.48,2.67,-0.02,-0.02,0.12
2022-12-08 20:12:16.3520,0.43,-1.46,2.77,0.05,0.07,0.16
2022-12-08 20:12:16.3620,0.16,-1.7,2.95,0.11,0.03,0.23
2022-12-08 20:12:16.3720,-0.41,-2.3,3.49,0.11,-0.06,0.23
2022-12-08 20:12:16.3820,-0.86,-2.71,3.8,0.06,-0.11,0.16
2022-12-08 20:12:16.3920,-0.72,-2.81,3.5,0.0,-0.12,0.09
2022-12-08 20:12:16.4020,-0.37,-2.64,3.32,-0.01,-0.11,0.0
2022-12-08 20:12:16.4110,-0.01,-2.27,3.04,-0.0,-0.09,-0.1
2022-12-08 20:12:16.4220,0.41,-1.59,2.68,0.04,-0.05,-0.2
2022-12-08 20:12:16.4310,0.92,-0.89,1.98,0.12,0.02,-0.27
2022-12-08 20:12:16.4410,1.26,-0.34,0.93,0.2,0.08,-0.3
2022-12-08 20:12:16.4510,1.23,-0.03,-0.01,0.26,0.11,-0.3
2022-12-08 20:12:16.4610,0.85,0.2,-0.86,0.3,0.07,-0.25
2022-12-08 20:12:16.4710,0.33,0.18,-1.47,0.33,-0.03,-0.16
2022-12-08 20:12:16.4810,-0.22,0.03,-1.81,0.32,-0.13,-0.06
2022-12-08 20:12:16.4910,-0.86,-0.26,-1.88,0.28,-0.2,0.01
2022-12-08 20:12:16.5010,-1.38,-0.52,-1.8,0.19,-0.22,0.02
2022-12-08 20:12:16.5110,-1.66,-0.74,-1.54,0.12,-0.18,0.03
2022-12-08 20:12:16.5210,-1.64,-0.91,-1.25,0.07,-0.13,0.02
2022-12-08 20:12:16.5310,-1.52,-1.03,-0.93,0.04,-0.09,-0.02
2022-12-08 20:12:16.5410,-1.43,-1.05,-0.64,0.03,-0.03,-0.06
2022-12-08 20:12:16.5510,-1.26,-0.93,-0.56,0.03,0.03,-0.09
2022-12-08 20:12:16.5610,-1.06,-0.7,-0.66,0.04,0.1,-0.11
2022-12-08 20:12:16.5710,-0.88,-0.43,-0.84,0.05,0.14,-0.12
2022-12-08 20:12:16.5810,-0.7,-0.16,-1.09,0.06,0.16,-0.12
2022-12-08 20:12:16.5910,-0.51,0.13,-1.33,0.05,0.15,-0.12
2022-12-08 20:12:16.6010,-0.34,0.4,-1.6,0.03,0.14,-0.11
2022-12-08 20:12:16.6110,-0.15,0.69,-1.95,0.01,0.11,-0.09
2022-12-08 20:12:16.6210,-0.03,1.03,-2.18,-0.03,0.08,-0.06
