time,gFx,gFy,gFz,ax,ay,az
2022-12-08 18:31:09.0940,0.059,-0.28,-0.785,-0.01,0.09,-1.02
2022-12-08 18:32:01.3280,0.099,-0.298,-0.728,-0.1,0.29,-1.79
2022-12-08 18:32:01.3380,0.111,-0.304,-0.688,-0.46,0.46,-2.35
2022-12-08 18:32:01.3480,0.116,-0.302,-0.655,-0.55,0.54,-2.74
2022-12-08 18:32:01.3580,0.115,-0.299,-0.638,-0.57,0.54,-3.07
2022-12-08 18:32:01.3680,0.138,-0.305,-0.639,-0.53,0.54,-3.24
2022-12-08 18:32:01.3780,0.139,-0.292,-0.658,-0.74,0.66,-3.24
2022-12-08 18:32:01.3880,0.137,-0.246,-0.691,-0.73,0.6,-3.08
2022-12-08 18:32:01.3980,0.113,-0.152,-0.701,-0.7,0.23,-2.77
2022-12-08 18:32:01.4080,0.107,-0.296,-0.756,-0.45,-0.59,-2.69
2022-12-08 18:32:01.4180,0.162,-0.281,-0.843,-0.35,0.92,-2.17
2022-12-08 18:32:01.4280,0.186,-0.219,-0.904,-0.86,0.87,-1.34
2022-12-08 18:32:01.4380,0.151,-0.255,-0.944,-1.06,0.34,-0.75
2022-12-08 18:32:01.4480,0.077,-0.32,-1.012,-0.67,0.76,-0.37
2022-12-08 18:32:01.4580,-0.137,-0.226,-1.121,0.09,1.42,0.3
2022-12-08 18:32:01.4680,-0.005,0.062,-0.821,2.23,0.49,1.37
2022-12-08 18:32:01.4780,0.055,0.006,-0.642,0.99,-2.34,-1.56
2022-12-08 18:32:01.4880,0.028,-0.17,-0.647,0.44,-1.76,-3.32
2022-12-08 18:32:01.4980,0.126,-0.274,-0.698,0.75,0.03,-3.28
2022-12-08 18:32:01.5080,0.346,-0.323,-0.793,-0.15,1.14,-2.78
2022-12-08 18:32:01.5180,0.483,-0.402,-0.944,-2.28,1.72,-1.87
2022-12-08 18:32:01.5280,0.39,-0.44,-1.039,-3.61,2.59,-0.4
2022-12-08 18:32:01.5380,0.272,-0.334,-1.077,-2.71,3.05,0.53
2022-12-08 18:32:01.5480,0.18,-0.206,-1.072,-1.59,2.06,0.89
2022-12-08 18:32:01.5580,0.119,-0.164,-1.1,-0.77,0.84,0.83
2022-12-08 18:32:01.5680,0.067,-0.151,-1.114,-0.27,0.45,1.08
2022-12-08 18:32:01.5780,0.081,-0.192,-1.154,0.11,0.33,1.21
2022-12-08 18:32:01.5880,0.098,-0.201,-1.165,-0.15,0.74,1.6
2022-12-08 18:32:01.5980,0.12,-0.176,-1.17,-0.43,0.82,1.7
2022-12-08 18:32:01.6080,0.144,-0.154,-1.173,-0.75,0.58,1.74
2022-12-08 18:32:01.6190,0.151,-0.142,-1.193,-1.07,0.39,1.76
2022-12-08 18:32:01.6290,0.154,-0.169,-1.211,-1.21,0.29,1.95
2022-12-08 18:32:01.6390,0.154,-0.173,-1.185,-1.29,0.56,2.13
2022-12-08 18:32:01.6480,0.115,-0.137,-1.1,-1.35,0.61,1.87
2022-12-08 18:32:01.6590,0.059,-0.094,-1.013,-1.02,0.28,1.03
2022-12-08 18:32:01.6690,-0.027,-0.033,-0.952,-0.55,-0.1,0.17
2022-12-08 18:32:01.6790,-0.276,0.097,-0.99,0.19,-0.6,-0.43
2022-12-08 18:32:01.6890,-0.386,0.139,-1.193,2.49,-1.74,-0.07
2022-12-08 18:32:01.6990,-0.188,0.162,-1.332,3.44,-2.01,1.91
2022-12-08 18:32:01.7090,-0.056,0.117,-1.407,1.39,-2.13,3.28
2022-12-08 18:32:01.7190,0.345,-0.013,-1.307,0.01,-1.63,4.02
2022-12-08 18:32:01.7290,0.552,-0.292,-1.215,-3.96,-0.34,3.04
2022-12-08 18:32:01.7390,0.136,-0.37,-1.274,-6.05,2.36,2.14
2022-12-08 18:32:01.7490,-0.05,-0.084,-1.17,-2.06,3.04,2.72
2022-12-08 18:32:01.7590,-0.205,0.051,-1.086,-0.38,0.12,1.72
2022-12-08 18:32:01.7690,-0.198,0.046,-1.103,1.0,-1.32,0.92
2022-12-08 18:32:01.7790,-0.131,-0.053,-1.126,0.82,-1.39,1.11
2022-12-08 18:32:01.7890,-0.135,-0.044,-1.084,0.08,-0.51,1.36
2022-12-08 18:32:01.7990,-0.324,0.051,-0.991,0.1,-0.7,0.96
2022-12-08 18:32:01.8090,-0.431,0.133,-0.9,1.94,-1.72,0.06
2022-12-08 18:32:01.8190,-0.403,0.165,-0.846,2.97,-2.65,-0.81
2022-12-08 18:32:01.8290,-0.374,0.158,-0.869,2.65,-3.13,-1.32
2022-12-08 18:32:01.8390,-0.333,0.098,-0.84,2.28,-3.27,-1.04
2022-12-08 18:32:01.8490,-0.274,-0.137,-0.815,1.76,-2.92,-1.26
2022-12-08 18:32:01.8590,-0.166,-0.385,-0.842,1.09,-0.86,-1.44
2022-12-08 18:32:01.8690,-0.133,-0.525,-0.79,-0.03,1.33,-1.1
2022-12-08 18:32:01.8790,-0.22,-0.565,-0.743,-0.42,2.5,-1.55
2022-12-08 18:32:01.8890,-0.378,-0.461,-0.731,0.38,2.74,-1.95
2022-12-08 18:32:01.8990,-0.44,-0.245,-0.739,1.87,1.62,-2.02
2022-12-08 18:32:01.9090,-0.423,-0.158,-0.698,2.45,-0.5,-1.94
2022-12-08 18:32:01.9190,-0.346,-0.191,-0.691,2.28,-1.26,-2.37
2022-12-08 18:32:01.9290,-0.316,-0.229,-0.71,1.54,-0.8,-2.49
2022-12-08 18:32:01.9390,-0.317,-0.213,-0.747,1.25,-0.28,-2.34
2022-12-08 18:32:01.9490,-0.303,-0.205,-0.709,1.22,-0.3,-2.0
2022-12-08 18:32:01.9590,-0.276,-0.2,-0.64,1.01,-0.28,-2.39
2022-12-08 18:32:01.9690,-0.277,-0.245,-0.592,0.64,-0.25,-3.06
2022-12-08 18:32:01.9790,-0.57,-0.325,-0.499,0.52,0.22,-3.5
2022-12-08 18:32:01.9890,-0.578,-0.136,-0.339,3.23,0.99,-4.38
2022-12-08 18:32:01.9990,-0.346,-0.042,-0.264,3.08,-0.91,-5.88
2022-12-08 18:32:02.0090,-0.232,0.017,-0.256,0.49,-1.89,-6.5
2022-12-08 18:32:02.0190,-0.321,0.123,-0.261,-1.02,-2.56,-6.42
2022-12-08 18:32:02.0290,-0.436,0.175,-0.241,-0.6,-3.68,-6.17
2022-12-08 18:32:02.0390,-0.42,0.153,-0.229,0.04,-4.3,-6.11
2022-12-08 18:32:02.0490,-0.387,0.155,-0.238,-0.63,-4.17,-5.92
2022-12-08 18:32:02.0600,-0.381,0.207,-0.269,-1.47,-4.28,-5.48
2022-12-08 18:32:02.0690,-0.408,0.263,-0.317,-2.03,-4.84,-4.79
2022-12-08 18:32:02.0800,-0.441,0.313,-0.358,-2.24,-5.43,-3.91
2022-12-08 18:32:02.0900,-0.432,0.34,-0.408,-2.34,-5.93,-3.11
2022-12-08 18:32:02.1000,-0.417,0.364,-0.43,-2.82,-6.16,-2.22
2022-12-08 18:32:02.1100,-0.411,0.397,-0.439,-3.3,-6.34,-1.62
2022-12-08 18:32:02.1200,-0.431,0.411,-0.463,-3.67,-6.56,-1.18
2022-12-08 18:32:02.1300,-0.442,0.414,-0.492,-3.74,-6.57,-0.61
2022-12-08 18:32:02.1400,-0.456,0.404,-0.555,-3.88,-6.43,0.0
2022-12-08 18:32:02.1500,-0.505,0.369,-0.627,-3.97,-6.13,0.93
2022-12-08 18:32:02.1600,-0.602,0.355,-0.676,-3.69,-5.56,1.92
2022-12-08 18:32:02.1700,-0.705,0.354,-0.722,-2.93,-5.17,2.68
2022-12-08 18:32:02.1800,-0.822,0.329,-0.806,-2.07,-4.88,3.41
2022-12-08 18:32:02.1900,-0.929,0.323,-0.885,-1.07,-4.35,4.49
2022-12-08 18:32:02.2000,-1.03,0.325,-0.916,-0.14,-3.98,5.5
2022-12-08 18:32:02.2100,-1.094,0.306,-0.904,0.76,-3.68,6.02
2022-12-08 18:32:02.2200,-1.169,0.28,-0.833,1.32,-3.15,6.08
2022-12-08 18:32:02.2300,-1.267,0.25,-0.751,2.02,-2.55,5.55
2022-12-08 18:32:02.2400,-1.347,0.204,-0.66,2.95,-1.91,4.87
2022-12-08 18:32:02.2500,-1.449,0.168,-0.605,3.73,-1.11,4.1
2022-12-08 18:32:02.2600,-1.554,0.137,-0.595,4.75,-0.42,3.66
2022-12-08 18:32:02.2700,-1.681,0.129,-0.576,5.8,0.22,3.65
2022-12-08 18:32:02.2800,-1.808,0.101,-0.585,7.09,0.61,3.52
2022-12-08 18:32:02.2900,-1.875,0.085,-0.557,8.4,1.18,3.64
2022-12-08 18:32:02.3000,-1.905,0.084,-0.506,9.13,1.62,3.36
2022-12-08 18:32:02.3100,-1.9,0.072,-0.466,9.49,1.87,2.83
2022-12-08 18:32:02.3200,-1.85,0.057,-0.438,9.53,2.21,2.38
2022-12-08 18:32:02.3300,-1.796,0.068,-0.412,9.13,2.56,2.03
2022-12-08 18:32:02.3400,-1.761,0.075,-0.383,8.69,2.64,1.68
2022-12-08 18:32:02.3500,-1.722,0.068,-0.396,8.43,2.74,1.29
2022-12-08 18:32:02.3600,-1.75,0.047,-0.43,8.14,2.96,1.3
2022-12-08 18:32:02.3700,-1.793,-0.008,-0.465,8.51,3.28,1.51
2022-12-08 18:32:02.3800,-1.813,-0.053,-0.488,9.01,3.9,1.72
2022-12-08 18:32:02.3900,-1.816,-0.07,-0.325,9.26,4.36,1.81
2022-12-08 18:32:02.4000,-1.779,-0.124,-0.169,9.32,4.5,0.08
2022-12-08 18:32:02.4100,-1.726,-0.197,-0.041,8.97,4.96,-1.58
2022-12-08 18:32:02.4200,-1.65,-0.264,0.18,8.46,5.57,-2.95
2022-12-08 18:32:02.4310,-1.576,-0.33,0.383,7.7,6.09,-5.23
2022-12-08 18:32:02.4400,-1.485,-0.348,0.501,6.95,6.59,-7.32
2022-12-08 18:32:02.4500,-1.351,-0.299,0.448,6.04,6.6,-8.56
2022-12-08 18:32:02.4610,-1.139,-0.14,0.368,4.69,5.96,-8.1
2022-12-08 18:32:02.4700,-0.874,-0.033,0.268,2.56,4.24,-7.34
2022-12-08 18:32:02.4800,-0.665,0.117,0.102,-0.1,3.03,-6.34
2022-12-08 18:32:02.4910,-0.585,0.247,-0.1,-2.21,1.43,-4.66
2022-12-08 18:32:02.5010,-0.61,0.242,-0.265,-3.05,0.05,-2.61
2022-12-08 18:32:02.5100,-0.75,0.158,-0.381,-2.86,0.01,-0.92
2022-12-08 18:32:02.5210,-0.838,0.137,-0.443,-1.55,0.75,0.31
2022-12-08 18:32:02.5310,-0.806,0.224,-0.395,-0.75,0.84,1.01
2022-12-08 18:32:02.5410,-0.769,0.19,-0.3,-1.13,-0.14,0.64
2022-12-08 18:32:02.5510,-0.853,0.034,-0.311,-1.56,0.06,-0.18
2022-12-08 18:32:02.5610,-0.799,0.071,-0.363,-0.8,1.41,0.01
2022-12-08 18:32:02.5710,-0.497,0.287,-0.365,-1.39,0.88,0.62
2022-12-08 18:32:02.5810,-0.516,0.269,-0.302,-4.41,-1.4,0.72
2022-12-08 18:32:02.5910,-0.674,0.021,-0.49,-4.26,-1.32,0.16
2022-12-08 18:32:02.6010,-0.776,0.254,-0.467,-2.73,1.04,2.07
2022-12-08 18:32:02.6110,-0.682,0.192,-0.456,-1.76,-1.33,1.9
2022-12-08 18:32:02.6210,-0.631,0.176,-0.507,-2.7,-0.79,1.84
2022-12-08 18:32:02.6310,-0.61,0.263,-0.404,-3.22,-0.69,2.37
2022-12-08 18:32:02.6410,-0.588,0.265,-0.372,-3.43,-1.59,1.37
2022-12-08 18:32:02.6510,-0.565,0.327,-0.398,-3.64,-1.62,1.04
2022-12-08 18:32:02.6610,-0.552,0.389,-0.388,-3.86,-2.22,1.26
2022-12-08 18:32:02.6710,-0.513,0.455,-0.358,-3.97,-2.8,1.11
2022-12-08 18:32:02.6810,-0.465,0.511,-0.34,-4.33,-3.38,0.77
2022-12-08 18:32:02.6910,-0.416,0.545,-0.264,-4.77,-3.83,0.54
2022-12-08 18:32:02.7010,-0.383,0.538,-0.155,-5.21,-4.02,-0.26
2022-12-08 18:32:02.7110,-0.423,0.532,-0.028,-5.5,-3.76,-1.36
2022-12-08 18:32:02.7210,-0.495,0.567,-0.02,-5.06,-3.48,-2.63
2022-12-08 18:32:02.7310,-0.592,0.744,-0.329,-4.29,-3.54,-2.75
2022-12-08 18:32:02.7410,-0.975,0.348,-0.335,-3.22,-4.93,0.18
2022-12-08 18:32:02.7510,-1.192,0.289,-0.103,0.68,-0.69,0.13
2022-12-08 18:32:02.7610,-1.23,0.344,0.022,2.95,0.24,-2.22
2022-12-08 18:32:02.7710,-1.253,0.29,-0.133,3.44,0.0,-3.45
2022-12-08 18:32:02.7810,-1.277,0.316,-0.216,3.76,0.82,-1.89
2022-12-08 18:32:02.7910,-1.37,0.359,-0.288,4.12,0.86,-1.01
2022-12-08 18:32:02.8010,-1.547,0.236,-0.367,5.13,0.71,-0.23
2022-12-08 18:32:02.8110,-1.58,0.204,-0.328,6.96,2.18,0.66
2022-12-08 18:32:02.8210,-1.573,0.168,-0.218,7.37,2.71,0.4
2022-12-08 18:32:02.8310,-1.523,0.057,-0.135,7.38,3.26,-0.57
2022-12-08 18:32:02.8410,-1.463,0.011,-0.061,6.97,4.52,-1.31
2022-12-08 18:32:02.8510,-1.392,0.061,-0.018,6.46,5.11,-1.99
2022-12-08 18:32:02.8620,-1.299,0.175,0.007,5.83,4.75,-2.37
2022-12-08 18:32:02.8710,-1.225,0.297,0.024,5.0,3.76,-2.58
2022-12-08 18:32:02.8810,-1.123,0.381,0.017,4.35,2.7,-2.7
2022-12-08 18:32:02.8920,-1.037,0.429,0.021,3.45,2.03,-2.58
2022-12-08 18:32:02.9020,-0.97,0.453,-0.007,2.73,1.74,-2.57
2022-12-08 18:32:02.9110,-0.94,0.468,-0.014,2.22,1.7,-2.26
2022-12-08 18:32:02.9210,-0.927,0.492,-0.04,2.1,1.76,-2.14
2022-12-08 18:32:02.9310,-0.946,0.538,-0.059,2.15,1.74,-1.82
2022-12-08 18:32:02.9410,-0.968,0.599,-0.089,2.51,1.49,-1.55
2022-12-08 18:32:02.9520,-1.045,0.588,-0.11,2.89,1.09,-1.14
2022-12-08 18:32:02.9620,-1.038,0.672,-0.105,3.76,1.35,-0.78
2022-12-08 18:32:02.9720,-1.008,0.767,-0.152,3.74,0.62,-0.64
2022-12-08 18:32:02.9820,-0.953,0.816,-0.219,3.42,-0.29,0.06
2022-12-08 18:32:02.9920,-0.872,0.861,-0.22,2.81,-0.79,0.95
2022-12-08 18:32:03.0020,-0.794,0.922,-0.198,1.91,-1.29,1.19
2022-12-08 18:32:03.0120,-0.725,0.991,-0.077,1.03,-1.97,1.2
2022-12-08 18:32:03.0220,-0.69,1.126,0.321,0.25,-2.74,0.22
2022-12-08 18:32:03.0320,-0.656,1.207,0.417,-0.2,-4.15,-3.45
2022-12-08 18:32:03.0420,-0.578,1.227,0.174,-0.61,-5.02,-4.17
2022-12-08 18:32:03.0520,-0.487,1.22,-0.02,-1.43,-5.26,-1.59
2022-12-08 18:32:03.0620,-0.41,1.184,-0.115,-2.33,-5.21,0.45
2022-12-08 18:32:03.0720,-0.321,1.083,-0.126,-3.06,-4.83,1.47
2022-12-08 18:32:03.0820,-0.255,0.987,-0.109,-3.87,-3.78,1.61
2022-12-08 18:32:03.0920,-0.269,0.952,-0.08,-4.44,-2.76,1.45
2022-12-08 18:32:03.1020,-0.292,0.928,-0.088,-4.26,-2.38,1.18
2022-12-08 18:32:03.1120,-0.262,0.894,-0.121,-4.01,-2.12,1.29
2022-12-08 18:32:03.1220,-0.229,0.866,-0.141,-4.3,-1.78,1.65
2022-12-08 18:32:03.1320,-0.218,0.862,-0.132,-4.69,-1.44,1.76
2022-12-08 18:32:03.1430,-0.205,0.861,-0.112,-4.69,-1.44,1.76
2022-12-08 18:32:03.1520,-0.194,0.849,-0.066,-4.8,-1.41,1.55
2022-12-08 18:32:03.1620,-0.195,0.814,-0.019,-4.89,-1.26,1.05
2022-12-08 18:32:03.1720,-0.199,0.777,-0.002,-4.85,-0.88,0.54
2022-12-08 18:32:03.1820,-0.187,0.763,-0.016,-4.77,-0.48,0.3
2022-12-08 18:32:03.1920,-0.157,0.769,-0.026,-4.84,-0.29,0.34
2022-12-08 18:32:03.2020,-0.107,0.779,-0.041,-5.07,-0.3,0.33
2022-12-08 18:32:03.2120,-0.055,0.778,-0.051,-5.5,-0.33,0.38
2022-12-08 18:32:03.2220,-0.005,0.773,-0.08,-5.93,-0.26,0.38
2022-12-08 18:32:03.2320,0.034,0.743,-0.119,-6.33,-0.13,0.6
2022-12-08 18:32:03.2420,0.043,0.7,-0.183,-6.61,0.24,0.95
2022-12-08 18:32:03.2520,0.031,0.665,-0.247,-6.6,0.75,1.55
2022-12-08 18:32:03.2620,0.018,0.656,-0.226,-6.36,1.19,2.16
2022-12-08 18:32:03.2720,0.019,0.676,-0.062,-6.1,1.38,1.91
2022-12-08 18:32:03.2820,-0.034,0.73,0.245,-5.94,1.3,0.25
2022-12-08 18:32:03.2920,-0.213,0.754,0.457,-5.23,0.92,-2.77
2022-12-08 18:32:03.3020,-0.489,0.712,0.384,-3.25,0.83,-4.8
2022-12-08 18:32:03.3120,-0.728,0.616,0.126,-0.28,1.4,-4.0
2022-12-08 18:32:03.3230,-0.837,0.53,-0.09,2.34,2.5,-1.36
2022-12-08 18:32:03.3320,-0.86,0.485,-0.074,3.71,3.51,0.82
2022-12-08 18:32:03.3420,-0.945,0.457,0.016,4.27,4.12,0.66
2022-12-08 18:32:03.3530,-1.069,0.447,-0.044,5.45,4.55,-0.32
2022-12-08 18:32:03.3630,-1.367,0.513,-0.089,7.01,4.79,0.11
2022-12-08 18:32:03.3730,-1.492,0.623,-0.184,10.25,4.24,0.35
2022-12-08 18:32:03.3830,-1.475,0.717,-0.292,11.73,3.23,1.08
2022-12-08 18:32:03.3930,-1.441,0.771,-0.286,11.73,2.34,1.93
2022-12-08 18:32:03.4030,-1.247,0.805,-0.196,11.48,1.81,1.69
2022-12-08 18:32:03.4130,-1.037,1.148,-0.095,9.6,1.47,0.66
2022-12-08 18:32:03.4230,-0.735,1.382,0.039,7.52,-1.92,-0.43
2022-12-08 18:32:03.4330,-0.49,1.618,0.104,4.52,-4.23,-1.76
2022-12-08 18:32:03.4430,-0.272,1.988,0.161,2.06,-6.55,-2.36
2022-12-08 18:32:03.4530,-0.083,2.434,0.329,-0.12,-10.18,-2.82
2022-12-08 18:32:03.4630,0.096,2.676,0.292,-1.98,-14.55,-4.43
2022-12-08 18:32:03.4740,0.263,2.447,0.232,-3.71,-16.93,-4.15
2022-12-08 18:32:03.4830,0.339,1.984,0.18,-5.28,-14.68,-3.67
2022-12-08 18:32:03.4930,0.362,1.511,0.054,-5.92,-10.11,-3.21
2022-12-08 18:32:03.5030,0.385,1.159,-0.061,-6.01,-5.44,-1.99
2022-12-08 18:32:03.5130,0.426,0.901,-0.096,-6.09,-1.95,-0.85
2022-12-08 18:32:03.5230,0.436,0.74,-0.066,-6.33,0.63,-0.48
2022-12-08 18:32:03.5330,0.424,0.658,-0.039,-6.24,2.25,-0.74
2022-12-08 18:32:03.5430,0.405,0.633,-0.022,-5.94,3.1,-0.94
2022-12-08 18:32:03.5530,0.345,0.661,-0.017,-5.59,3.38,-1.03
2022-12-08 18:32:03.5630,0.314,0.749,-0.056,-4.85,3.14,-0.99
2022-12-08 18:32:03.5730,0.354,0.857,-0.05,-4.44,2.31,-0.51
2022-12-08 18:32:03.5830,0.362,0.967,-0.044,-4.74,1.28,-0.46
2022-12-08 18:32:03.5930,0.376,1.065,-0.063,-4.74,0.21,-0.4
2022-12-08 18:32:03.6030,0.398,1.129,-0.106,-4.8,-0.73,-0.08
2022-12-08 18:32:03.6130,0.393,1.151,-0.165,-4.94,-1.34,0.47
2022-12-08 18:32:03.6230,0.373,1.132,-0.242,-4.8,-1.54,1.18
2022-12-08 18:32:03.6330,0.353,1.094,-0.319,-4.48,-1.34,2.04
2022-12-08 18:32:03.6430,0.323,1.062,-0.355,-4.14,-0.95,2.88
2022-12-08 18:32:03.6530,0.274,1.022,-0.38,-3.67,-0.63,3.32
2022-12-08 18:32:03.6630,0.213,0.995,-0.417,-2.99,-0.23,3.64
2022-12-08 18:32:03.6730,0.144,0.983,-0.444,-2.18,0.05,4.06
2022-12-08 18:32:03.6830,0.072,0.986,-0.412,-1.31,0.16,4.34
2022-12-08 18:32:03.6930,0.018,0.996,-0.328,-0.42,0.13,4.01
2022-12-08 18:32:03.7030,-0.005,0.985,-0.283,0.27,0.02,3.11
2022-12-08 18:32:03.7130,-0.041,0.948,-0.263,0.66,0.12,2.56
2022-12-08 18:32:03.7230,-0.067,0.907,-0.236,1.16,0.47,2.23
2022-12-08 18:32:03.7340,-0.079,0.877,-0.212,1.57,0.86,1.8
2022-12-08 18:32:03.7430,-0.07,0.884,-0.181,1.82,1.12,1.4
2022-12-08 18:32:03.7530,-0.059,0.93,-0.152,1.85,1.03,0.91
2022-12-08 18:32:03.7640,-0.052,0.978,-0.124,1.86,0.55,0.46
2022-12-08 18:32:03.7740,-0.019,1.01,-0.101,1.89,0.04,0.01
2022-12-08 18:32:03.7840,0.005,1.002,-0.077,1.67,-0.32,-0.38
2022-12-08 18:32:03.7940,0.022,0.974,-0.047,1.54,-0.28,-0.8
2022-12-08 18:32:03.8040,0.038,0.966,-0.012,1.47,-0.06,-1.27
2022-12-08 18:32:03.8140,0.052,0.961,0.028,1.41,-0.03,-1.82
2022-12-08 18:32:03.8240,0.054,0.956,0.078,1.36,-0.04,-2.41
2022-12-08 18:32:03.8340,0.044,0.955,0.131,1.43,-0.06,-3.09
2022-12-08 18:32:03.8440,0.024,0.963,0.197,1.61,-0.11,-3.8
2022-12-08 18:32:03.8540,-0.05,0.979,0.411,1.89,-0.26,-4.59
2022-12-08 18:32:03.8640,-0.216,1.029,0.81,2.69,-0.45,-6.79
2022-12-08 18:32:03.8740,-0.207,1.066,0.495,4.39,-0.97,-10.71
2022-12-08 18:32:03.8840,-0.109,1.064,0.096,4.38,-1.33,-7.57
2022-12-08 18:32:03.8940,-0.096,1.078,-0.013,3.52,-1.31,-3.56
2022-12-08 18:32:03.9040,-0.127,1.047,-0.04,3.49,-1.44,-2.36
2022-12-08 18:32:03.9140,-0.178,0.981,-0.052,3.89,-1.13,-1.97
2022-12-08 18:32:03.9240,-0.19,1.035,-0.066,4.49,-0.47,-1.68
2022-12-08 18:32:03.9340,-0.208,1.074,-0.113,4.69,-0.98,-1.37
2022-12-08 18:32:03.9440,-0.232,1.1,-0.166,4.91,-1.35,-0.74
2022-12-08 18:32:03.9540,-0.242,1.166,-0.198,5.19,-1.59,-0.07
2022-12-08 18:32:03.9640,-0.222,1.317,-0.224,5.29,-2.21,0.4
2022-12-08 18:32:03.9740,-0.24,1.373,-0.239,5.09,-3.66,0.78
2022-12-08 18:32:03.9840,-0.302,1.309,-0.198,5.23,-4.19,1.01
2022-12-08 18:32:03.9940,-0.367,1.268,-0.123,5.79,-3.55,0.65
2022-12-08 18:32:04.0040,-0.424,1.245,-0.012,6.34,-3.11,-0.06
2022-12-08 18:32:04.0140,-0.44,1.224,0.103,6.78,-2.85,-1.11
2022-12-08 18:32:04.0240,-0.431,1.195,0.205,6.79,-2.59,-2.2
2022-12-08 18:32:04.0340,-0.405,1.172,0.342,6.53,-2.26,-3.11
2022-12-08 18:32:04.0440,-0.366,1.191,0.553,6.09,-1.98,-4.34
2022-12-08 18:32:04.0540,-0.363,1.305,0.407,5.52,-2.1,-6.26
2022-12-08 18:32:04.0640,-0.338,1.361,0.295,5.26,-3.16,-4.65
2022-12-08 18:32:04.0740,-0.288,1.4,0.226,4.77,-3.67,-3.34
2022-12-08 18:32:04.0840,-0.223,1.492,0.096,4.0,-4.0,-2.42
2022-12-08 18:32:04.0940,-0.129,1.592,-0.049,3.06,-4.87,-0.88
2022-12-08 18:32:04.1040,-0.001,1.684,-0.203,1.85,-5.84,0.81
2022-12-08 18:32:04.1140,0.141,1.748,-0.374,0.3,-6.74,2.59
2022-12-08 18:32:04.1240,0.324,1.784,-0.506,-1.37,-7.38,4.49
2022-12-08 18:32:04.1340,0.511,1.782,-0.597,-3.41,-7.75,5.95
2022-12-08 18:32:04.1440,0.59,1.744,-0.563,-5.47,-7.74,6.93
2022-12-08 18:32:04.1540,0.611,1.626,-0.467,-6.44,-7.38,6.6
2022-12-08 18:32:04.1650,0.624,1.462,-0.331,-6.84,-6.24,5.61
2022-12-08 18:32:04.1750,0.626,1.272,-0.203,-7.16,-4.64,4.18
2022-12-08 18:32:04.1850,0.604,1.085,-0.095,-7.36,-2.78,2.78
2022-12-08 18:32:04.1950,0.614,0.907,-0.005,-7.33,-0.96,1.56
2022-12-08 18:32:04.2050,0.623,0.754,0.051,-7.62,0.77,0.52
2022-12-08 18:32:04.2150,0.657,0.651,0.08,-7.89,2.24,-0.19
2022-12-08 18:32:04.2250,0.688,0.578,0.095,-8.4,3.22,-0.62
2022-12-08 18:32:04.2350,0.689,0.545,0.101,-8.85,3.9,-0.87
2022-12-08 18:32:04.2450,0.646,0.532,0.087,-8.99,4.2,-1.01
2022-12-08 18:32:04.2550,0.596,0.502,0.043,-8.68,4.3,-0.9
2022-12-08 18:32:04.2650,0.547,0.481,-0.005,-8.28,4.58,-0.48
2022-12-08 18:32:04.2750,0.486,0.475,-0.052,-7.86,4.76,-0.01
2022-12-08 18:32:04.2850,0.431,0.485,-0.082,-7.31,4.81,0.44
2022-12-08 18:32:04.2950,0.383,0.515,-0.067,-6.8,4.71,0.7
2022-12-08 18:32:04.3050,0.362,0.536,-0.043,-6.34,4.41,0.51
2022-12-08 18:32:04.3150,0.398,0.533,-0.0,-6.13,4.2,0.19
2022-12-08 18:32:04.3250,0.454,0.539,0.064,-6.46,4.24,-0.33
2022-12-08 18:32:04.3350,0.496,0.548,0.154,-6.96,4.18,-1.07
2022-12-08 18:32:04.3450,0.519,0.56,0.233,-7.31,4.11,-2.05
2022-12-08 18:32:04.3550,0.5,0.588,0.291,-7.43,4.01,-2.89
2022-12-08 18:32:04.3650,0.442,0.665,0.346,-7.1,3.77,-3.47
2022-12-08 18:32:04.3750,0.339,0.77,0.445,-6.37,3.05,-3.96
2022-12-08 18:32:04.3850,0.132,0.879,0.579,-5.15,2.07,-4.84
2022-12-08 18:32:04.3950,-0.206,1.023,0.499,-2.92,1.05,-6.0
2022-12-08 18:32:04.4050,-0.541,1.169,0.108,0.6,-0.33,-5.06
2022-12-08 18:32:04.4150,-0.723,1.319,-0.35,4.1,-1.74,-1.12
2022-12-08 18:32:04.4250,-0.844,1.525,-0.554,6.1,-3.18,3.42
2022-12-08 18:32:04.4350,-0.977,1.657,-0.548,7.49,-5.19,5.39
2022-12-08 18:32:04.4450,-1.089,1.68,-0.476,8.96,-6.47,5.25
2022-12-08 18:32:04.4550,-1.197,1.608,-0.383,10.19,-6.69,4.43
2022-12-08 18:32:04.4650,-1.253,1.464,-0.252,11.32,-5.99,3.36
2022-12-08 18:32:04.4770,-1.201,1.319,-0.157,11.91,-4.58,1.89
2022-12-08 18:32:04.4850,-1.077,1.194,-0.117,11.4,-3.18,0.76
2022-12-08 18:32:04.4950,-0.904,1.162,-0.116,10.14,-1.96,0.16
2022-12-08 18:32:04.5050,-0.685,1.285,-0.086,8.38,-1.68,-0.05
2022-12-08 18:32:04.5150,-0.469,1.496,0.031,6.14,-2.91,-0.52
2022-12-08 18:32:04.5250,-0.334,1.616,0.105,3.87,-5.01,-1.8
2022-12-08 18:32:04.5350,-0.233,1.608,-0.015,2.36,-6.21,-2.54
2022-12-08 18:32:04.5450,-0.115,1.549,0.17,1.13,-6.14,-1.29
2022-12-08 18:32:04.5550,0.02,1.345,0.879,-0.25,-5.57,-2.95
2022-12-08 18:32:04.5660,0.39,0.924,1.362,-1.71,-3.58,-9.81
2022-12-08 18:32:04.5760,0.536,0.729,0.619,-5.41,0.55,-14.52
2022-12-08 18:32:04.5850,0.417,0.734,0.07,-6.89,2.45,-7.21
2022-12-08 18:32:04.5950,0.438,0.771,-0.106,-5.77,2.4,-1.77
2022-12-08 18:32:04.6060,0.519,0.809,-0.095,-5.99,2.05,0.06
2022-12-08 18:32:04.6160,0.546,0.848,-0.104,-6.76,1.69,0.08
2022-12-08 18:32:04.6260,0.525,0.892,-0.127,-6.98,1.33,0.33
2022-12-08 18:32:04.6360,0.489,0.939,-0.162,-6.71,0.91,0.72
2022-12-08 18:32:04.6460,0.48,0.939,-0.221,-6.29,0.47,1.23
2022-12-08 18:32:04.6560,0.493,0.918,-0.301,-6.15,0.48,1.96
2022-12-08 18:32:04.6660,0.567,0.941,-0.321,-6.9,0.49,3.12
2022-12-08 18:32:04.6770,0.609,0.949,-0.282,-6.9,0.49,3.12
2022-12-08 18:32:04.6860,0.572,0.96,-0.222,-7.22,0.42,2.77
2022-12-08 18:32:04.6960,0.503,0.963,-0.159,-6.73,0.33,2.17
2022-12-08 18:32:04.7060,0.43,0.974,-0.106,-5.02,0.22,0.95
2022-12-08 18:32:04.7170,0.38,1.011,-0.071,-5.02,0.22,0.95
2022-12-08 18:32:04.7260,0.328,1.038,-0.058,-4.35,-0.13,0.56
2022-12-08 18:32:04.7360,0.305,1.15,-0.011,-3.67,-0.39,0.39
2022-12-08 18:32:04.7460,0.319,1.213,-0.038,-3.28,-1.48,-0.07
2022-12-08 18:32:04.7560,0.343,1.151,-0.121,-3.27,-2.09,0.22
2022-12-08 18:32:04.7660,0.338,1.067,-0.196,-3.37,-1.49,1.09
2022-12-08 18:32:04.7760,0.304,1.023,-0.264,-3.18,-0.66,1.9
2022-12-08 18:32:04.7860,0.248,0.972,-0.311,-2.71,-0.23,2.62
2022-12-08 18:32:04.7970,0.195,0.933,-0.336,-2.01,0.26,3.12
2022-12-08 18:32:04.8060,0.14,0.924,-0.36,-1.34,0.63,3.36
2022-12-08 18:32:04.8160,0.09,0.944,-0.385,-0.66,0.71,3.56
2022-12-08 18:32:04.8260,0.053,0.962,-0.382,-0.02,0.51,3.73
2022-12-08 18:32:04.8360,0.037,0.976,-0.341,0.5,0.31,3.59
2022-12-08 18:32:04.8460,0.031,1.006,-0.29,0.8,0.15,3.03
2022-12-08 18:32:04.8560,0.014,1.04,-0.24,1.03,-0.16,2.35
2022-12-08 18:32:04.8660,-0.009,1.074,-0.193,1.36,-0.54,1.68
2022-12-08 18:32:04.8760,-0.027,1.103,-0.15,1.75,-0.92,1.02
2022-12-08 18:32:04.8860,-0.037,1.098,-0.12,2.11,-1.25,0.41
2022-12-08 18:32:04.8960,-0.042,1.048,-0.11,2.39,-1.26,-0.07
2022-12-08 18:32:04.9060,-0.042,0.98,-0.107,2.61,-0.83,-0.36
2022-12-08 18:32:04.9160,-0.022,0.944,-0.046,2.76,-0.25,-0.65
2022-12-08 18:32:04.9260,0.007,0.967,0.073,2.7,0.01,-1.55
2022-12-08 18:32:04.9360,-0.026,1.002,1.285,2.52,-0.32,-3.02
2022-12-08 18:32:04.9460,-0.138,1.041,1.659,2.92,-0.71,-15.02
2022-12-08 18:32:04.9560,-0.112,0.999,0.023,4.1,-1.1,-18.65
2022-12-08 18:32:04.9670,-0.068,0.99,-0.331,3.94,-0.7,-2.55
2022-12-08 18:32:04.9770,-0.103,1.041,-0.345,3.63,-0.65,0.97
2022-12-08 18:32:04.9860,-0.169,1.103,-0.263,4.12,-1.18,1.16
2022-12-08 18:32:04.9960,-0.222,1.124,-0.187,4.9,-1.82,0.45
2022-12-08 18:32:05.0070,-0.262,1.118,-0.173,5.54,-2.05,-0.19
2022-12-08 18:32:05.0160,-0.292,1.116,-0.187,6.04,-2.0,-0.21
2022-12-08 18:32:05.0270,-0.305,1.118,-0.21,6.39,-1.97,0.03
2022-12-08 18:32:05.0370,-0.307,1.139,-0.241,6.55,-1.99,0.35
2022-12-08 18:32:05.0470,-0.322,1.177,-0.28,6.57,-2.18,0.73
2022-12-08 18:32:05.0570,-0.344,1.205,-0.315,6.69,-2.53,1.18
2022-12-08 18:32:05.0670,-0.365,1.229,-0.327,6.87,-2.79,1.57
2022-12-08 18:32:05.0770,-0.387,1.238,-0.304,7.01,-2.99,1.72
2022-12-08 18:32:05.0870,-0.405,1.217,-0.248,7.14,-3.05,1.5
2022-12-08 18:32:05.0970,-0.42,1.195,-0.175,7.19,-2.8,0.94
2022-12-08 18:32:05.1070,-0.432,1.204,-0.093,7.21,-2.54,0.19
2022-12-08 18:32:05.1170,-0.436,1.248,0.14,7.16,-2.59,-0.66
2022-12-08 18:32:05.1270,-0.543,1.385,1.14,7.01,-2.95,-2.94
2022-12-08 18:32:05.1370,-0.375,1.36,0.587,7.84,-4.21,-12.58
2022-12-08 18:32:05.1470,-0.219,1.265,0.049,5.95,-3.88,-6.97
2022-12-08 18:32:05.1570,-0.127,1.27,0.064,4.14,-2.87,-1.55
2022-12-08 18:32:05.1670,-0.026,1.282,0.075,2.94,-2.85,-1.58
2022-12-08 18:32:05.1770,0.061,1.31,0.062,1.64,-2.91,-1.56
2022-12-08 18:32:05.1870,0.133,1.372,0.006,0.49,-3.13,-1.3
2022-12-08 18:32:05.1970,0.201,1.458,-0.08,-0.51,-3.7,-0.6
2022-12-08 18:32:05.2070,0.288,1.558,-0.185,-1.46,-4.52,0.42
2022-12-08 18:32:05.2170,0.376,1.666,-0.295,-2.57,-5.48,1.65
2022-12-08 18:32:05.2270,0.495,1.772,-0.351,-3.68,-6.53,2.91
2022-12-08 18:32:05.2370,0.578,1.817,-0.386,-5.07,-7.58,3.61
2022-12-08 18:32:05.2470,0.609,1.76,-0.391,-6.13,-8.03,4.06
2022-12-08 18:32:05.2570,0.615,1.605,-0.328,-6.67,-7.49,4.11
2022-12-08 18:32:05.2670,0.623,1.405,-0.247,-6.99,-5.99,3.42
2022-12-08 18:32:05.2770,0.623,1.227,-0.164,-7.33,-4.05,2.5
2022-12-08 18:32:05.2870,0.64,1.067,-0.101,-7.57,-2.34,1.52
2022-12-08 18:32:05.2970,0.657,0.926,-0.064,-7.97,-0.81,0.74
2022-12-08 18:32:05.3070,0.643,0.805,-0.052,-8.33,0.53,0.24
2022-12-08 18:32:05.3170,0.609,0.699,-0.052,-8.35,1.68,-0.01
2022-12-08 18:32:05.3270,0.562,0.616,-0.041,-8.16,2.69,-0.11
2022-12-08 18:32:05.3370,0.503,0.553,-0.007,-7.8,3.47,-0.31
2022-12-08 18:32:05.3470,0.401,0.508,0.094,-7.32,4.05,-0.73
2022-12-08 18:32:05.3570,0.213,0.459,0.396,-6.39,4.47,-1.79
2022-12-08 18:32:05.3670,0.163,0.462,0.351,-4.62,4.92,-4.78
2022-12-08 18:32:05.3780,0.243,0.487,0.087,-4.22,4.88,-4.35
2022-12-08 18:32:05.3870,0.317,0.504,-0.043,-5.06,4.62,-1.77
2022-12-08 18:32:05.3970,0.395,0.517,-0.081,-5.83,4.43,-0.53
2022-12-08 18:32:05.4080,0.477,0.516,-0.067,-6.62,4.29,-0.2
2022-12-08 18:32:05.4170,0.554,0.51,-0.025,-7.45,4.29,-0.41
2022-12-08 18:32:05.4270,0.599,0.495,0.016,-8.21,4.34,-0.87
2022-12-08 18:32:05.4380,0.6,0.472,0.036,-8.63,4.48,-1.34
2022-12-08 18:32:05.4480,0.583,0.467,0.055,-8.6,4.71,-1.61
2022-12-08 18:32:05.4580,0.549,0.491,0.121,-8.36,4.77,-1.86
2022-12-08 18:32:05.4680,0.474,0.568,0.221,-7.93,4.55,-2.54
2022-12-08 18:32:05.4780,0.352,0.692,0.306,-7.08,3.83,-3.54
2022-12-08 18:32:05.4880,0.167,0.866,0.375,-5.75,2.64,-4.37
2022-12-08 18:32:05.4980,-0.101,1.072,0.289,-3.82,0.97,-5.01
2022-12-08 18:32:05.5080,-0.372,1.278,-0.088,-1.06,-1.01,-4.12
2022-12-08 18:32:05.5180,-0.525,1.503,-0.618,1.69,-3.0,-0.35
2022-12-08 18:32:05.5280,-0.64,1.659,-0.829,3.23,-5.19,4.93
2022-12-08 18:32:05.5380,-0.835,1.773,-0.794,4.36,-6.72,7.05
2022-12-08 18:32:05.5480,-1.143,1.83,-0.699,6.23,-7.85,6.74
2022-12-08 18:32:05.5580,-1.483,1.765,-0.576,9.15,-8.42,5.77
2022-12-08 18:32:05.5680,-1.705,1.549,-0.461,12.32,-7.83,4.46
2022-12-08 18:32:05.5780,-1.784,1.203,-0.337,14.25,-5.8,3.2
2022-12-08 18:32:05.5880,-1.6,0.743,-0.238,14.71,-2.52,1.84
2022-12-08 18:32:05.5980,-1.102,0.294,-0.202,12.6,1.88,0.73
2022-12-08 18:32:05.6080,-0.72,0.142,-0.156,7.55,6.21,0.28
2022-12-08 18:32:05.6180,-0.591,0.392,-0.101,3.8,7.68,-0.24
2022-12-08 18:32:05.6280,-0.673,0.709,-0.043,2.65,5.26,-0.83
2022-12-08 18:32:05.6380,-0.764,0.975,0.058,3.61,2.2,-1.44
2022-12-08 18:32:05.6480,-0.918,1.327,0.323,4.66,-0.38,-2.48
2022-12-08 18:32:05.6580,-0.989,1.72,0.577,6.29,-3.8,-5.1
2022-12-08 18:32:05.6680,-0.729,1.886,0.489,7.05,-7.62,-7.54
2022-12-08 18:32:05.6780,-0.285,1.694,0.211,4.51,-9.22,-6.59
2022-12-08 18:32:05.6880,0.11,1.303,0.433,0.16,-7.35,-3.9
2022-12-08 18:32:05.6980,0.341,0.931,0.542,-3.73,-3.54,-6.17
2022-12-08 18:32:05.7080,0.34,0.716,0.165,-6.02,0.1,-7.29
2022-12-08 18:32:05.7180,0.379,0.656,-0.03,-6.02,2.2,-3.61
2022-12-08 18:32:05.7280,0.469,0.69,-0.079,-6.39,2.79,-1.68
2022-12-08 18:32:05.7380,0.482,0.8,-0.08,-7.2,2.48,-1.18
2022-12-08 18:32:05.7480,0.425,0.99,-0.05,-7.23,1.44,-1.14
2022-12-08 18:32:05.7580,0.408,1.171,-0.029,-6.56,-0.38,-1.39
2022-12-08 18:32:05.7680,0.435,1.26,-0.043,-6.28,-2.12,-1.49
2022-12-08 18:32:05.7780,0.489,1.263,-0.062,-6.45,-2.94,-1.22
2022-12-08 18:32:05.7880,0.529,1.195,-0.104,-6.87,-2.92,-0.88
2022-12-08 18:32:05.7980,0.558,1.105,-0.143,-7.18,-2.21,-0.31
2022-12-08 18:32:05.8090,0.548,1.041,-0.157,-7.36,-1.28,0.23
2022-12-08 18:32:05.8180,0.53,0.995,-0.137,-7.15,-0.63,0.49
2022-12-08 18:32:05.8280,0.515,0.956,-0.136,-6.84,-0.14,0.41
2022-12-08 18:32:05.8390,0.515,0.915,-0.156,-6.55,0.28,0.49
2022-12-08 18:32:05.8480,0.504,0.902,-0.136,-6.4,0.71,0.76
2022-12-08 18:32:05.8580,0.467,0.933,-0.141,-6.12,0.86,0.64
2022-12-08 18:32:05.8690,0.424,0.957,-0.186,-5.58,0.59,0.77
2022-12-08 18:32:05.8790,0.34,0.971,-0.212,-4.99,0.36,1.28
2022-12-08 18:32:05.8890,0.246,0.966,-0.19,-4.0,0.25,1.61
2022-12-08 18:32:05.8990,0.155,0.961,-0.201,-2.91,0.3,1.44
2022-12-08 18:32:05.9090,0.103,0.955,-0.247,-1.88,0.36,1.58
2022-12-08 18:32:05.9190,0.06,0.955,-0.292,-1.23,0.43,2.05
2022-12-08 18:32:05.9290,0.006,0.97,-0.323,-0.68,0.43,2.47
2022-12-08 18:32:05.9390,-0.028,0.989,-0.343,-0.03,0.28,2.72
2022-12-08 18:32:05.9490,-0.043,1.009,-0.317,0.42,0.09,2.81
2022-12-08 18:32:05.9590,-0.051,1.03,-0.26,0.68,-0.12,2.43
2022-12-08 18:32:05.9690,-0.078,1.046,-0.208,0.88,-0.34,1.7
2022-12-08 18:32:05.9800,-0.116,1.053,-0.166,1.28,-0.53,1.0
2022-12-08 18:32:05.9890,-0.149,1.061,-0.119,1.79,-0.63,0.38
2022-12-08 18:32:05.9990,-0.166,1.08,-0.074,2.27,-0.74,-0.3
2022-12-08 18:32:06.0090,-0.183,1.099,-0.032,2.6,-0.98,-0.94
2022-12-08 18:32:06.0190,-0.203,1.096,0.011,2.94,-1.22,-1.54
2022-12-08 18:32:06.0290,-0.256,1.053,0.485,3.31,-1.25,-2.13
2022-12-08 18:32:06.0390,-0.357,0.96,1.681,4.0,-0.87,-6.89
2022-12-08 18:32:06.0490,-0.296,0.887,0.702,5.12,0.01,-18.63
2022-12-08 18:32:06.0590,-0.246,0.886,-0.058,4.64,0.71,-9.03
2022-12-08 18:32:06.0690,-0.231,0.97,-0.161,4.28,0.69,-1.59
2022-12-08 18:32:06.0790,-0.273,1.046,-0.201,4.26,-0.16,-0.59
2022-12-08 18:32:06.0890,-0.329,1.094,-0.195,4.83,-0.94,-0.18
2022-12-08 18:32:06.0990,-0.37,1.098,-0.191,5.5,-1.43,-0.19
2022-12-08 18:32:06.1090,-0.399,1.067,-0.213,6.01,-1.48,-0.15
2022-12-08 18:32:06.1190,-0.416,1.029,-0.257,6.38,-1.18,0.17
2022-12-08 18:32:06.1290,-0.432,1.006,-0.318,6.59,-0.8,0.7
2022-12-08 18:32:06.1390,-0.448,0.991,-0.38,6.78,-0.56,1.4
2022-12-08 18:32:06.1490,-0.464,0.963,-0.423,6.94,-0.39,2.1
2022-12-08 18:32:06.1590,-0.482,0.949,-0.434,7.07,-0.1,2.61
2022-12-08 18:32:06.1690,-0.506,0.969,-0.407,7.2,0.06,2.78
2022-12-08 18:32:06.1790,-0.535,1.014,-0.349,7.37,-0.11,2.57
2022-12-08 18:32:06.1890,-0.557,1.05,-0.272,7.55,-0.52,2.03
2022-12-08 18:32:06.1990,-0.569,1.05,-0.182,7.65,-0.84,1.3
2022-12-08 18:32:06.2090,-0.582,1.029,-0.093,7.62,-0.81,0.44
2022-12-08 18:32:06.2190,-0.732,1.017,0.599,7.58,-0.56,-0.42
2022-12-08 18:32:06.2290,-1.006,1.072,1.547,8.87,-0.4,-7.08
2022-12-08 18:32:06.2390,-0.734,1.105,0.048,11.36,-0.88,-16.15
2022-12-08 18:32:06.2490,-0.672,1.187,-0.157,8.47,-1.15,-1.27
2022-12-08 18:32:06.2590,-0.657,1.263,-0.056,7.58,-1.92,0.83
2022-12-08 18:32:06.2690,-0.554,1.328,-0.064,7.1,-2.63,-0.09
2022-12-08 18:32:06.2800,-0.463,1.445,-0.125,5.73,-3.24,0.07
2022-12-08 18:32:06.2900,-0.356,1.617,-0.227,4.45,-4.39,0.75
2022-12-08 18:32:06.2990,-0.226,1.82,-0.344,3.0,-6.08,1.86
2022-12-08 18:32:06.3100,-0.081,2.032,-0.502,1.34,-8.09,3.11
2022-12-08 18:32:06.3200,0.108,2.186,-0.643,-0.43,-10.2,4.76
2022-12-08 18:32:06.3300,0.318,2.252,-0.698,-2.59,-11.76,6.21
2022-12-08 18:32:06.3400,0.42,2.198,-0.634,-4.91,-12.46,6.77
2022-12-08 18:32:06.3510,0.463,2.055,-0.528,-6.11,-11.96,6.12
2022-12-08 18:32:06.3610,0.475,1.835,-0.378,-6.69,-10.59,5.01
2022-12-08 18:32:06.3700,0.417,1.578,-0.234,-6.95,-8.47,3.45
2022-12-08 18:32:06.3800,0.396,1.347,-0.14,-6.51,-5.99,1.92
2022-12-08 18:32:06.3900,0.397,1.116,-0.103,-6.44,-3.76,0.88
2022-12-08 18:32:06.4000,0.381,0.845,-0.07,-6.59,-1.54,0.33
2022-12-08 18:32:06.4100,0.411,0.774,0.085,-6.6,1.04,-0.24
2022-12-08 18:32:06.4200,0.456,0.771,0.357,-7.08,1.65,-2.01
2022-12-08 18:32:06.4300,0.464,0.695,0.866,-7.71,1.6,-4.85
2022-12-08 18:32:06.4400,0.513,0.662,0.672,-8.0,2.27,-9.86
2022-12-08 18:32:06.4500,0.559,0.664,0.221,-8.67,2.53,-7.83
2022-12-08 18:32:06.4600,0.546,0.651,-0.007,-9.27,2.47,-3.26
2022-12-08 18:32:06.4700,0.518,0.619,-0.117,-9.26,2.56,-0.89
2022-12-08 18:32:06.4810,0.478,0.581,-0.196,-9.06,2.85,0.26
2022-12-08 18:32:06.4900,0.421,0.55,-0.223,-8.72,3.2,1.04
2022-12-08 18:32:06.5000,0.367,0.516,-0.18,-8.17,3.49,1.25
2022-12-08 18:32:06.5100,0.363,0.479,-0.081,-7.65,3.81,0.74
2022-12-08 18:32:06.5200,0.452,0.477,0.033,-7.62,4.16,-0.32
2022-12-08 18:32:06.5300,0.55,0.509,0.108,-8.47,4.18,-1.54
2022-12-08 18:32:06.5400,0.586,0.537,0.121,-9.39,3.87,-2.36
2022-12-08 18:32:06.5500,0.58,0.562,0.092,-9.69,3.61,-2.56
2022-12-08 18:32:06.5600,0.558,0.58,0.086,-9.55,3.39,-2.35
2022-12-08 18:32:06.5700,0.532,0.605,0.146,-9.24,3.24,-2.36
2022-12-08 18:32:06.5800,0.475,0.654,0.273,-8.17,2.6,-4.27
2022-12-08 18:32:06.5920,0.325,0.732,0.383,-8.17,2.6,-4.27
2022-12-08 18:32:06.6000,0.13,0.831,0.484,-6.56,1.89,-5.34
2022-12-08 18:32:06.6110,-0.166,0.936,0.425,-4.49,0.97,-6.32
2022-12-08 18:32:06.6200,-0.433,1.037,-0.026,-1.46,0.0,-5.72
2022-12-08 18:32:06.6310,-0.575,1.174,-0.676,1.27,-0.95,-1.28
2022-12-08 18:32:06.6400,-0.759,1.378,-0.875,2.69,-2.28,5.15
2022-12-08 18:32:06.6510,-1.081,1.657,-0.841,4.46,-4.28,7.17
2022-12-08 18:32:06.6600,-1.58,1.898,-0.817,7.49,-7.04,6.96
2022-12-08 18:32:06.6710,-2.135,1.897,-0.708,12.18,-9.46,6.87
2022-12-08 18:32:06.6810,-2.07,1.403,-0.584,17.44,-9.5,5.94
2022-12-08 18:32:06.6920,-1.788,0.785,-0.432,16.77,-4.67,4.72
2022-12-08 18:32:06.7000,-1.681,0.33,-0.281,14.15,1.43,3.07
2022-12-08 18:32:06.7110,-1.627,0.236,-0.191,13.35,5.94,1.33
2022-12-08 18:32:06.7210,-1.518,0.229,-0.143,13.09,6.9,0.15
2022-12-08 18:32:06.7300,-1.219,0.311,-0.11,12.25,6.99,-0.58
2022-12-08 18:32:06.7410,-0.868,0.636,0.011,9.49,6.18,-1.12
2022-12-08 18:32:06.7510,-0.512,1.056,0.493,6.17,2.99,-2.45
2022-12-08 18:32:06.7610,-0.215,1.454,1.113,2.77,-1.1,-7.18
2022-12-08 18:32:06.7710,-0.361,1.641,0.752,-0.05,-4.95,-13.1
2022-12-08 18:32:06.7810,-0.514,1.679,-0.119,1.42,-6.71,-9.29
2022-12-08 18:32:06.7910,-0.356,1.815,-0.382,2.89,-7.07,-0.64
2022-12-08 18:32:06.8010,0.325,1.788,1.252,1.27,-8.46,1.77
2022-12-08 18:32:06.8110,0.424,1.45,1.024,-5.49,-8.24,-14.38
2022-12-08 18:32:06.8210,0.154,1.064,0.146,-6.57,-4.95,-12.12
2022-12-08 18:32:06.8310,0.168,0.849,-0.154,-4.03,-1.17,-3.4
2022-12-08 18:32:06.8410,0.316,0.722,-0.204,-4.25,0.95,-0.33
2022-12-08 18:32:06.8510,0.428,0.676,-0.206,-5.75,2.2,0.28
2022-12-08 18:32:06.8610,0.44,0.702,-0.238,-6.85,2.67,0.39
2022-12-08 18:32:06.8710,0.409,0.815,-0.221,-6.9,2.45,0.78
2022-12-08 18:32:06.8810,0.329,0.983,-0.187,-6.52,1.37,0.65
2022-12-08 18:32:06.8910,0.296,1.158,-0.137,-5.66,-0.25,0.38
2022-12-08 18:32:06.9010,0.358,1.302,-0.132,-5.26,-1.94,-0.05
2022-12-08 18:32:06.9110,0.471,1.38,-0.174,-5.81,-3.32,0.0
2022-12-08 18:32:06.9210,0.549,1.427,-0.236,-6.84,-4.06,0.52
2022-12-08 18:32:06.9310,0.571,1.396,-0.221,-7.52,-4.49,1.23
2022-12-08 18:32:06.9410,0.542,1.269,-0.162,-7.63,-4.15,1.18
2022-12-08 18:32:06.9510,0.519,1.127,-0.159,-7.22,-2.87,0.69
2022-12-08 18:32:06.9610,0.556,1.014,-0.185,-6.83,-1.45,0.74
2022-12-08 18:32:06.9710,0.619,0.93,-0.232,-7.02,-0.3,1.08
2022-12-08 18:32:06.9810,0.595,0.892,-0.246,-7.43,0.57,1.61
2022-12-08 18:32:06.9910,0.484,0.885,-0.21,-6.98,0.97,1.79
2022-12-08 18:32:07.0010,0.377,0.872,-0.196,-5.65,1.06,1.47
2022-12-08 18:32:07.0110,0.269,0.859,-0.186,-4.39,1.21,1.34
2022-12-08 18:32:07.0210,0.197,0.865,-0.176,-3.14,1.34,1.24
2022-12-08 18:32:07.0310,0.146,0.889,-0.192,-2.27,1.3,1.14
2022-12-08 18:32:07.0410,0.102,0.925,-0.229,-1.62,1.07,1.28
2022-12-08 18:32:07.0510,0.063,0.955,-0.246,-1.05,0.71,1.6
2022-12-08 18:32:07.0610,0.028,0.986,-0.228,-0.55,0.41,1.7
2022-12-08 18:32:07.0710,-0.016,1.027,-0.197,-0.07,0.09,1.43
2022-12-08 18:32:07.0820,-0.069,1.069,-0.16,0.48,-0.31,1.02
2022-12-08 18:32:07.0910,-0.117,1.099,-0.136,1.12,-0.75,0.51
2022-12-08 18:32:07.1020,-0.151,1.114,-0.117,1.72,-1.07,0.11
2022-12-08 18:32:07.1120,-0.188,1.114,-0.094,2.19,-1.25,-0.25
2022-12-08 18:32:07.1210,-0.236,1.097,-0.053,2.69,-1.29,-0.68
2022-12-08 18:32:07.1310,-0.476,1.067,0.582,3.31,-1.18,-1.31
2022-12-08 18:32:07.1420,-0.982,0.982,1.805,5.76,-0.93,-7.69
2022-12-08 18:32:07.1520,-0.707,0.856,0.653,10.76,-0.1,-19.71
2022-12-08 18:32:07.1620,-0.356,0.775,-0.173,8.1,1.13,-8.42
2022-12-08 18:32:07.1720,-0.269,0.774,-0.246,4.73,1.91,-0.35
2022-12-08 18:32:07.1820,-0.247,0.809,-0.238,3.97,1.89,0.32
2022-12-08 18:32:07.1920,-0.272,0.841,-0.203,3.89,1.52,0.21
2022-12-08 18:32:07.2020,-0.33,0.875,-0.183,4.29,1.19,-0.12
2022-12-08 18:32:07.2120,-0.396,0.906,-0.189,5.02,0.83,-0.27
2022-12-08 18:32:07.2220,-0.45,0.928,-0.229,5.82,0.52,-0.12
2022-12-08 18:32:07.2320,-0.474,0.956,-0.286,6.46,0.31,0.38
2022-12-08 18:32:07.2420,-0.481,0.993,-0.357,6.77,0.04,1.08
2022-12-08 18:32:07.2520,-0.475,1.029,-0.428,6.88,-0.32,1.9
2022-12-08 18:32:07.2620,-0.455,1.034,-0.488,6.85,-0.65,2.7
2022-12-08 18:32:07.2720,-0.44,1.027,-0.515,6.65,-0.69,3.38
2022-12-08 18:32:07.2820,-0.457,1.038,-0.488,6.49,-0.6,3.71
2022-12-08 18:32:07.2920,-0.492,1.048,-0.42,6.63,-0.7,3.48
2022-12-08 18:32:07.3020,-0.53,1.019,-0.348,6.94,-0.79,2.81
2022-12-08 18:32:07.3120,-0.556,0.958,-0.278,7.25,-0.5,2.09
2022-12-08 18:32:07.3220,-0.578,0.923,-0.203,7.41,0.12,1.38
2022-12-08 18:32:07.3320,-0.63,0.96,-0.097,7.5,0.48,0.61
2022-12-08 18:32:07.3420,-1.039,1.156,1.243,7.84,0.15,-0.43
2022-12-08 18:32:07.3520,-1.227,1.418,1.214,11.65,-1.71,-13.34
2022-12-08 18:32:07.3620,-0.805,1.457,-0.318,13.24,-4.22,-12.77
2022-12-08 18:32:07.3720,-0.751,1.478,-0.164,8.8,-4.56,2.41
2022-12-08 18:32:07.3820,-0.599,1.448,-0.034,7.93,-4.74,0.96
2022-12-08 18:32:07.3920,-0.454,1.48,-0.033,6.06,-4.42,-0.28
2022-12-08 18:32:07.4020,-0.355,1.591,-0.12,4.24,-4.73,-0.25
2022-12-08 18:32:07.4120,-0.263,1.746,-0.22,2.86,-5.83,0.67
2022-12-08 18:32:07.4220,-0.158,1.919,-0.36,1.55,-7.38,1.74
2022-12-08 18:32:07.4320,-0.009,2.052,-0.531,0.13,-9.13,3.19
2022-12-08 18:32:07.4420,0.147,2.128,-0.594,-1.67,-10.49,4.93
2022-12-08 18:32:07.4530,0.241,2.131,-0.546,-3.5,-11.29,5.57
2022-12-08 18:32:07.4640,0.319,2.044,-0.449,-4.66,-11.37,5.08
2022-12-08 18:32:07.4730,0.36,1.872,-0.345,-5.62,-10.57,4.08
2022-12-08 18:32:07.4830,0.338,1.658,-0.255,-6.19,-8.94,2.99
2022-12-08 18:32:07.4920,0.315,1.451,-0.182,-6.12,-6.87,2.03
2022-12-08 18:32:07.5020,0.293,1.275,-0.123,-6.03,-4.89,1.23
2022-12-08 18:32:07.5130,0.304,1.121,-0.097,-5.96,-3.22,0.58
2022-12-08 18:32:07.5220,0.323,0.937,-0.129,-6.24,-1.77,0.23
2022-12-08 18:32:07.5320,0.402,0.84,-0.11,-6.61,-0.05,0.4
2022-12-08 18:32:07.5420,0.524,0.84,-0.063,-7.58,0.81,0.06
2022-12-08 18:32:07.5530,0.577,0.826,0.036,-8.98,0.71,-0.54
2022-12-08 18:32:07.5630,0.589,0.783,0.178,-9.68,0.75,-1.61
2022-12-08 18:32:07.5730,0.545,0.703,0.346,-9.97,1.1,-3.04
2022-12-08 18:32:07.5830,0.5,0.622,0.306,-9.68,1.82,-4.63
2022-12-08 18:32:07.5930,0.482,0.552,0.121,-9.37,2.56,-4.15
2022-12-08 18:32:07.6030,0.463,0.485,0.016,-9.28,3.21,-2.27
2022-12-08 18:32:07.6130,0.468,0.436,-0.019,-9.15,3.83,-1.25
2022-12-08 18:32:07.6230,0.501,0.418,-0.033,-9.23,4.28,-0.99
2022-12-08 18:32:07.6330,0.549,0.438,0.011,-9.56,4.44,-0.97
2022-12-08 18:32:07.6430,0.586,0.452,0.087,-10.0,4.23,-1.53
2022-12-08 18:32:07.6530,0.586,0.455,0.114,-10.32,4.11,-2.41
2022-12-08 18:32:07.6630,0.569,0.462,0.111,-10.26,4.09,-2.79
2022-12-08 18:32:07.6730,0.528,0.475,0.107,-10.01,4.05,-2.84
2022-12-08 18:32:07.6830,0.458,0.512,0.097,-9.52,3.94,-2.88
2022-12-08 18:32:07.6930,0.365,0.581,0.097,-8.71,3.62,-2.85
2022-12-08 18:32:07.7030,0.248,0.663,0.134,-7.67,3.0,-2.91
2022-12-08 18:32:07.7130,0.115,0.737,0.147,-6.35,2.25,-3.35
2022-12-08 18:32:07.7230,-0.071,0.812,0.133,-4.86,1.59,-3.56
2022-12-08 18:32:07.7330,-0.296,0.905,-0.046,-2.83,0.92,-3.52
2022-12-08 18:32:07.7430,-0.455,1.019,-0.458,-0.43,0.06,-1.81
2022-12-08 18:32:07.7530,-0.574,1.165,-0.772,1.26,-1.01,2.24
2022-12-08 18:32:07.7630,-0.767,1.355,-0.787,2.47,-2.41,5.37
2022-12-08 18:32:07.7730,-1.052,1.558,-0.721,4.31,-4.27,5.63
2022-12-08 18:32:07.7830,-1.441,1.72,-0.619,6.98,-6.26,5.16
2022-12-08 18:32:07.7930,-1.659,1.593,-0.498,10.66,-7.86,4.37
2022-12-08 18:32:07.8030,-1.676,1.236,-0.445,12.77,-6.59,3.37
2022-12-08 18:32:07.8130,-1.794,0.891,-0.4,13.08,-3.02,2.93
2022-12-08 18:32:07.8230,-1.807,0.718,-0.263,14.5,0.44,2.38
2022-12-08 18:32:07.8330,-1.762,0.788,-0.137,14.92,2.2,0.83
2022-12-08 18:32:07.8430,-1.643,1.004,-0.057,14.74,1.53,-0.61
2022-12-08 18:32:07.8530,-1.349,1.172,0.014,13.73,-0.58,-1.58
2022-12-08 18:32:07.8630,-1.115,1.311,0.171,10.89,-2.25,-2.4
2022-12-08 18:32:07.8730,-0.975,1.556,0.488,8.53,-3.63,-3.97
2022-12-08 18:32:07.8830,-0.752,1.648,0.594,7.04,-6.06,-7.03
2022-12-08 18:32:07.8930,-0.496,1.418,0.255,4.71,-6.96,-7.93
2022-12-08 18:32:07.9030,-0.341,1.185,-0.136,2.08,-4.71,-4.41
2022-12-08 18:32:07.9130,-0.163,1.025,-0.48,0.44,-2.42,-0.42
2022-12-08 18:32:07.9240,0.024,0.876,-0.436,-1.44,-0.9,2.92
2022-12-08 18:32:07.9330,0.232,0.82,0.025,-3.39,0.47,2.28
2022-12-08 18:32:07.9430,0.495,0.819,0.568,-5.53,0.94,-2.48
2022-12-08 18:32:07.9540,0.723,0.853,0.627,-8.17,0.88,-7.96
2022-12-08 18:32:07.9630,0.821,0.946,0.236,-10.4,0.53,-8.6
2022-12-08 18:32:07.9740,0.736,1.104,0.061,-11.29,-0.36,-4.77
2022-12-08 18:32:07.9840,0.556,1.305,0.009,-10.32,-1.85,-3.03
2022-12-08 18:32:07.9940,0.454,1.436,0.033,-8.41,-3.76,-2.46
2022-12-08 18:32:08.0040,0.489,1.461,0.042,-7.26,-4.97,-2.6
2022-12-08 18:32:08.0140,0.588,1.37,0.008,-7.48,-5.14,-2.57
2022-12-08 18:32:08.0240,0.64,1.21,-0.027,-8.31,-4.19,-2.09
2022-12-08 18:32:08.0340,0.619,1.048,-0.062,-8.67,-2.55,-1.63
2022-12-08 18:32:08.0440,0.522,0.941,-0.041,-8.32,-0.91,-1.19
2022-12-08 18:32:08.0540,0.441,0.871,0.023,-7.21,0.2,-1.32
2022-12-08 18:32:08.0640,0.386,0.841,0.052,-6.25,0.93,-1.87
2022-12-08 18:32:08.0740,0.411,0.831,0.05,-5.57,1.27,-2.07
2022-12-08 18:32:08.0840,0.454,0.858,0.0,-5.66,1.41,-1.95
2022-12-08 18:32:08.0940,0.45,0.925,-0.081,-5.91,1.18,-1.35
2022-12-08 18:32:08.1040,0.395,1.0,-0.16,-5.72,0.57,-0.41
2022-12-08 18:32:08.1140,0.289,1.059,-0.194,-5.02,-0.13,0.49
2022-12-08 18:32:08.1240,0.221,1.081,-0.208,-3.83,-0.68,0.97
2022-12-08 18:32:08.1340,0.147,1.083,-0.239,-3.03,-0.87,1.24
2022-12-08 18:32:08.1440,0.099,1.072,-0.308,-2.17,-0.87,1.66
2022-12-08 18:32:08.1540,0.045,1.062,-0.395,-1.56,-0.75,2.43
2022-12-08 18:32:08.1640,-0.038,1.06,-0.469,-0.9,-0.64,3.34
2022-12-08 18:32:08.1740,-0.119,1.055,-0.505,0.04,-0.61,4.07
2022-12-08 18:32:08.1850,-0.174,1.062,-0.496,0.94,-0.56,4.38
2022-12-08 18:32:08.1940,-0.211,1.075,-0.451,1.59,-0.63,4.2
2022-12-08 18:32:08.2040,-0.256,1.081,-0.386,2.07,-0.78,3.61
2022-12-08 18:32:08.2140,-0.301,1.073,-0.314,2.62,-0.85,2.8
2022-12-08 18:32:08.2240,-0.324,1.063,-0.236,3.18,-0.8,1.89
2022-12-08 18:32:08.2340,-0.329,1.05,-0.161,3.55,-0.73,0.92
2022-12-08 18:32:08.2440,-0.334,1.036,-0.095,3.77,-0.65,-0.03
2022-12-08 18:32:08.2540,-0.37,1.018,-0.043,4.03,-0.56,-0.88
2022-12-08 18:32:08.2640,-0.459,0.975,0.417,4.6,-0.44,-1.6
2022-12-08 18:32:08.2740,-0.626,0.866,2.265,7.53,0.99,-24.32
2022-12-08 18:32:08.2860,-0.469,0.78,0.872,7.53,0.99,-24.32
2022-12-08 18:32:08.2940,-0.401,0.788,-0.092,6.17,1.82,-10.58
2022-12-08 18:32:08.3040,-0.397,0.869,-0.142,5.67,1.72,-1.06
2022-12-08 18:32:08.3140,-0.416,0.924,-0.15,5.78,0.9,-0.52
2022-12-08 18:32:08.3240,-0.439,0.933,-0.191,6.1,0.35,-0.37
2022-12-08 18:32:08.3340,-0.466,0.908,-0.275,6.44,0.26,0.13
2022-12-08 18:32:08.3440,-0.489,0.882,-0.385,6.79,0.51,1.07
2022-12-08 18:32:08.3550,-0.495,0.887,-0.508,7.06,0.76,2.27
2022-12-08 18:32:08.3640,-0.478,0.923,-0.617,7.15,0.73,3.59
2022-12-08 18:32:08.3740,-0.453,0.976,-0.673,6.99,0.39,4.76
2022-12-08 18:32:08.3850,-0.455,1.046,-0.646,6.74,-0.12,5.37
2022-12-08 18:32:08.3950,-0.476,1.072,-0.547,6.73,-0.79,5.15
2022-12-08 18:32:08.4050,-0.492,1.033,-0.449,6.9,-1.04,4.19
2022-12-08 18:32:08.4150,-0.503,0.994,-0.361,6.98,-0.64,3.22
2022-12-08 18:32:08.4250,-0.513,0.971,-0.272,6.98,-0.24,2.34
2022-12-08 18:32:08.4350,-0.527,0.987,-0.179,6.94,0.01,1.42
2022-12-08 18:32:08.4450,-0.538,1.041,-0.093,6.91,-0.12,0.48
2022-12-08 18:32:08.4550,-0.769,1.209,1.065,6.81,-0.62,-0.41
2022-12-08 18:32:08.4650,-0.916,1.434,1.545,8.87,-2.22,-11.67
2022-12-08 18:32:08.4750,-0.65,1.386,-0.047,10.06,-4.38,-16.2
2022-12-08 18:32:08.4850,-0.55,1.384,-0.118,7.14,-3.87,-0.48
2022-12-08 18:32:08.4950,-0.465,1.424,-0.076,5.83,-3.82,0.28
2022-12-08 18:32:08.5050,-0.387,1.497,-0.11,4.61,-4.2,-0.08
2022-12-08 18:32:08.5150,-0.302,1.601,-0.16,3.46,-4.92,0.32
2022-12-08 18:32:08.5250,-0.209,1.725,-0.225,2.23,-5.95,0.88
2022-12-08 18:32:08.5350,-0.107,1.84,-0.319,0.92,-7.2,1.6
2022-12-08 18:32:08.5450,0.01,1.906,-0.411,-0.46,-8.37,2.61
2022-12-08 18:32:08.5550,0.144,1.952,-0.434,-1.96,-9.08,3.58
2022-12-08 18:32:08.5650,0.273,1.961,-0.424,-3.57,-9.59,3.86
2022-12-08 18:32:08.5760,0.348,1.908,-0.359,-5.08,-9.74,3.76
2022-12-08 18:32:08.5850,0.358,1.767,-0.273,-6.01,-9.27,3.08
2022-12-08 18:32:08.5950,0.355,1.586,-0.189,-6.27,-7.94,2.18
2022-12-08 18:32:08.6050,0.317,1.393,-0.116,-6.38,-6.21,1.26
2022-12-08 18:32:08.6150,0.287,1.214,-0.061,-6.13,-4.35,0.46
2022-12-08 18:32:08.6250,0.275,1.03,-0.067,-5.95,-2.65,-0.19
2022-12-08 18:32:08.6350,0.283,0.844,-0.092,-5.97,-0.91,-0.27
2022-12-08 18:32:08.6450,0.348,0.779,-0.008,-6.21,0.84,-0.21
2022-12-08 18:32:08.6550,0.415,0.766,0.206,-7.02,1.38,-1.21
2022-12-08 18:32:08.6650,0.454,0.72,0.375,-7.86,1.42,-3.43
2022-12-08 18:32:08.6750,0.49,0.689,0.339,-8.43,1.79,-5.12
2022-12-08 18:32:08.6870,0.511,0.667,0.18,-8.93,2.03,-4.7
2022-12-08 18:32:08.6950,0.505,0.64,0.006,-9.28,2.2,-3.03
2022-12-08 18:32:08.7050,0.489,0.598,-0.142,-9.32,2.43,-1.21
2022-12-08 18:32:08.7150,0.468,0.558,-0.234,-9.22,2.82,0.3
2022-12-08 18:32:08.7260,0.42,0.53,-0.21,-9.04,3.19,1.17
2022-12-08 18:32:08.7350,0.375,0.507,-0.063,-8.56,3.46,0.83
2022-12-08 18:32:08.7460,0.398,0.501,0.115,-8.08,3.68,-0.75
2022-12-08 18:32:08.7560,0.465,0.525,0.222,-8.27,3.74,-2.62
2022-12-08 18:32:08.7650,0.489,0.554,0.199,-8.87,3.52,-3.77
2022-12-08 18:32:08.7750,0.468,0.573,0.101,-9.03,3.26,-3.61
2022-12-08 18:32:08.7860,0.437,0.59,0.039,-8.74,3.1,-2.72
2022-12-08 18:32:08.7950,0.41,0.609,0.05,-8.32,2.97,-2.18
2022-12-08 18:32:08.8050,0.37,0.657,0.069,-7.94,2.83,-2.35
2022-12-08 18:32:08.8160,0.309,0.735,0.137,-7.41,2.4,-2.59
2022-12-08 18:32:08.8260,0.2,0.836,0.376,-6.65,1.69,-3.31
2022-12-08 18:32:08.8360,-0.087,0.963,0.471,-5.41,0.76,-5.7
2022-12-08 18:32:08.8460,-0.371,1.074,0.007,-2.43,-0.44,-6.67
2022-12-08 18:32:08.8560,-0.506,1.208,-0.68,0.49,-1.47,-2.12
2022-12-08 18:32:08.8660,-0.764,1.425,-0.84,1.88,-2.75,4.67
2022-12-08 18:32:08.8760,-1.138,1.699,-0.812,4.4,-4.87,6.34
2022-12-08 18:32:08.8860,-1.613,1.925,-0.794,8.0,-7.55,6.23
2022-12-08 18:32:08.8960,-1.942,1.722,-0.751,12.61,-9.74,6.27
2022-12-08 18:32:08.9060,-2.122,1.305,-0.691,15.91,-7.7,6.0
2022-12-08 18:32:08.9170,-2.186,0.966,-0.484,17.9,-3.54,5.41
2022-12-08 18:32:08.9260,-2.027,0.904,-0.205,18.8,-0.16,3.19
2022-12-08 18:32:08.9360,-1.849,0.992,-0.028,17.51,0.47,0.17
2022-12-08 18:32:08.9460,-1.603,1.012,0.054,15.96,-0.42,-1.85
2022-12-08 18:32:08.9560,-1.25,0.93,0.123,13.63,-0.64,-2.9
2022-12-08 18:32:08.9660,-0.894,0.984,0.407,10.15,0.11,-3.74
2022-12-08 18:32:08.9760,-0.506,1.209,0.945,6.57,-0.45,-6.57
2022-12-08 18:32:08.9860,-0.358,1.191,0.779,2.69,-2.65,-11.75
2022-12-08 18:32:08.9960,-0.362,1.038,0.215,1.14,-2.43,-9.9
2022-12-08 18:32:09.0060,-0.264,0.983,-0.293,1.06,-0.91,-4.1
2022-12-08 18:32:09.0160,-0.099,0.916,-0.631,-0.05,-0.39,0.99
2022-12-08 18:32:09.0260,0.087,0.877,-0.222,-1.83,0.18,4.11
2022-12-08 18:32:09.0360,0.349,0.925,0.39,-3.83,0.44,-0.2
2022-12-08 18:32:09.0460,0.689,0.97,0.924,-6.54,-0.15,-6.46
2022-12-08 18:32:09.0560,0.784,1.024,0.62,-9.98,-0.66,-11.8
2022-12-08 18:32:09.0660,0.635,1.157,0.229,-10.96,-1.2,-8.79
2022-12-08 18:32:09.0760,0.466,1.342,0.015,-9.47,-2.47,-4.88
2022-12-08 18:32:09.0860,0.408,1.507,-0.071,-7.75,-4.24,-2.67
2022-12-08 18:32:09.0960,0.424,1.579,-0.032,-7.08,-5.78,-1.71
2022-12-08 18:32:09.1060,0.508,1.543,-0.039,-7.11,-6.42,-1.96
2022-12-08 18:32:09.1160,0.565,1.417,-0.035,-7.79,-5.98,-1.75
2022-12-08 18:32:09.1260,0.596,1.26,-0.068,-8.19,-4.67,-1.65
2022-12-08 18:32:09.1360,0.598,1.142,-0.084,-8.34,-3.06,-1.19
2022-12-08 18:32:09.1460,0.561,1.029,-0.08,-8.17,-1.83,-0.93
2022-12-08 18:32:09.1560,0.489,0.959,-0.059,-7.62,-0.66,-0.86
2022-12-08 18:32:09.1660,0.462,0.928,-0.056,-6.71,0.08,-0.98
2022-12-08 18:32:09.1760,0.499,0.917,-0.09,-6.24,0.44,-0.91
2022-12-08 18:32:09.1860,0.557,0.922,-0.189,-6.4,0.6,-0.47
2022-12-08 18:32:09.1970,0.501,0.951,-0.278,-6.77,0.59,0.61
2022-12-08 18:32:09.2060,0.364,0.992,-0.263,-6.02,0.35,1.58
2022-12-08 18:32:09.2170,0.254,1.023,-0.268,-4.48,-0.02,1.54
2022-12-08 18:32:09.2270,0.203,1.035,-0.324,-3.23,-0.3,1.69
2022-12-08 18:32:09.2360,0.133,1.039,-0.398,-2.57,-0.4,2.32
2022-12-08 18:32:09.2460,0.029,1.042,-0.43,-1.74,-0.43,3.08
2022-12-08 18:32:09.2570,-0.04,1.04,-0.425,-0.59,-0.46,3.41
2022-12-08 18:32:09.2670,-0.086,1.028,-0.381,0.21,-0.43,3.32
2022-12-08 18:32:09.2770,-0.128,1.02,-0.316,0.77,-0.32,2.81
2022-12-08 18:32:09.2880,-0.168,1.022,-0.253,1.28,-0.26,2.06
2022-12-08 18:32:09.2970,-0.205,1.024,-0.202,1.79,-0.29,1.29
2022-12-08 18:32:09.3070,-0.242,1.02,-0.152,2.27,-0.34,0.61
2022-12-08 18:32:09.3170,-0.252,1.017,-0.108,2.77,-0.34,-0.09
2022-12-08 18:32:09.3270,-0.27,1.017,-0.074,3.04,-0.36,-0.75
2022-12-08 18:32:09.3370,-0.361,1.018,0.147,3.41,-0.42,-1.36
2022-12-08 18:32:09.3470,-0.867,0.923,1.894,4.49,-0.5,-3.76
2022-12-08 18:32:09.3570,-0.934,0.759,1.469,9.59,0.4,-20.95
2022-12-08 18:32:09.3670,-0.502,0.671,-0.084,10.38,2.0,-16.75
2022-12-08 18:32:09.3770,-0.395,0.731,-0.239,6.29,2.84,-1.5
2022-12-08 18:32:09.3870,-0.418,0.83,-0.22,5.41,2.24,0.02
2022-12-08 18:32:09.3970,-0.448,0.9,-0.225,5.78,1.25,-0.13
2022-12-08 18:32:09.4070,-0.477,0.941,-0.258,6.21,0.55,-0.01
2022-12-08 18:32:09.4170,-0.49,0.96,-0.311,6.61,0.14,0.42
2022-12-08 18:32:09.4270,-0.493,0.989,-0.385,6.8,-0.02,1.07
2022-12-08 18:32:09.4370,-0.48,1.03,-0.48,6.87,-0.28,1.95
2022-12-08 18:32:09.4470,-0.456,1.035,-0.57,6.75,-0.66,3.02
2022-12-08 18:32:09.4570,-0.434,1.03,-0.618,6.52,-0.69,4.04
2022-12-08 18:32:09.4670,-0.445,1.081,-0.57,6.29,-0.62,4.61
2022-12-08 18:32:09.4770,-0.479,1.139,-0.469,6.37,-1.1,4.2
2022-12-08 18:32:09.4870,-0.51,1.132,-0.372,6.65,-1.66,3.25
2022-12-08 18:32:09.4970,-0.514,1.058,-0.269,6.87,-1.57,2.29
2022-12-08 18:32:09.5070,-0.516,1.002,-0.175,6.8,-0.83,1.27
2022-12-08 18:32:09.5170,-0.534,0.992,-0.092,6.68,-0.26,0.32
2022-12-08 18:32:09.5270,-0.774,1.057,0.898,6.67,-0.13,-0.52
2022-12-08 18:32:09.5370,-1.189,1.227,2.039,8.83,-0.73,-10.09
2022-12-08 18:32:09.5470,-0.763,1.23,-0.048,12.66,-2.34,-21.05
2022-12-08 18:32:09.5570,-0.653,1.284,-0.216,8.21,-2.33,-0.42
2022-12-08 18:32:09.5670,-0.618,1.367,-0.1,6.8,-2.83,1.32
2022-12-08 18:32:09.5770,-0.512,1.441,-0.126,6.1,-3.63,0.23
2022-12-08 18:32:09.5870,-0.419,1.547,-0.177,4.66,-4.36,0.55
2022-12-08 18:32:09.5970,-0.319,1.682,-0.242,3.34,-5.42,1.11
2022-12-08 18:32:09.6070,-0.216,1.819,-0.323,1.93,-6.78,1.83
2022-12-08 18:32:09.6170,-0.097,1.929,-0.397,0.51,-8.18,2.72
2022-12-08 18:32:09.6270,0.024,1.995,-0.434,-1.04,-9.33,3.54
2022-12-08 18:32:09.6380,0.131,2.017,-0.433,-2.58,-10.05,3.97
2022-12-08 18:32:09.6480,0.215,1.976,-0.392,-3.93,-10.35,3.99
2022-12-08 18:32:09.6580,0.273,1.858,-0.34,-5.0,-10.02,3.57
2022-12-08 18:32:09.6680,0.28,1.677,-0.291,-5.78,-8.93,3.0
2022-12-08 18:32:09.6780,0.302,1.493,-0.217,-6.02,-7.22,2.42
2022-12-08 18:32:09.6880,0.318,1.326,-0.155,-6.38,-5.47,1.58
2022-12-08 18:32:09.6980,0.316,1.172,-0.11,-6.66,-3.89,0.83
2022-12-08 18:32:09.7080,0.297,0.973,-0.115,-6.76,-2.44,0.23
2022-12-08 18:32:09.7180,0.287,0.803,-0.101,-6.69,-0.55,0.1
2022-12-08 18:32:09.7280,0.34,0.771,-0.016,-6.72,1.03,-0.24
2022-12-08 18:32:09.7380,0.394,0.763,0.095,-7.39,1.25,-1.26
2022-12-08 18:32:09.7480,0.409,0.711,0.286,-8.07,1.24,-2.48
2022-12-08 18:32:09.7580,0.398,0.641,0.385,-8.37,1.66,-4.4
2022-12-08 18:32:09.7680,0.412,0.596,0.295,-8.41,2.29,-5.31
2022-12-08 18:32:09.7780,0.433,0.59,0.137,-8.67,2.68,-4.29
2022-12-08 18:32:09.7880,0.437,0.585,-0.035,-8.97,2.71,-2.61
2022-12-08 18:32:09.7980,0.409,0.569,-0.127,-9.06,2.75,-0.83
2022-12-08 18:32:09.8080,0.372,0.56,-0.092,-8.8,2.9,0.05
2022-12-08 18:32:09.8180,0.379,0.56,-0.001,-8.41,2.98,-0.38
2022-12-08 18:32:09.8280,0.435,0.565,0.081,-8.44,2.99,-1.39
2022-12-08 18:32:09.8380,0.471,0.57,0.115,-8.93,2.95,-2.32
2022-12-08 18:32:09.8480,0.475,0.572,0.111,-9.2,2.93,-2.76
2022-12-08 18:32:09.8580,0.466,0.568,0.134,-9.13,2.95,-2.82
2022-12-08 18:32:09.8680,0.448,0.57,0.183,-8.93,3.02,-3.14
2022-12-08 18:32:09.8780,0.411,0.598,0.16,-8.63,3.06,-3.68
2022-12-08 18:32:09.8880,0.347,0.674,0.105,-8.12,2.84,-3.49
2022-12-08 18:32:09.8980,0.264,0.799,0.144,-7.33,2.16,-3.0
2022-12-08 18:32:09.9080,0.132,0.954,0.311,-6.34,0.99,-3.45
2022-12-08 18:32:09.9180,-0.136,1.045,0.131,-4.84,-0.47,-5.16
2022-12-08 18:32:09.9280,-0.321,1.102,-0.487,-2.03,-1.3,-3.44
2022-12-08 18:32:09.9380,-0.588,1.245,-0.805,-0.07,-1.8,2.62
2022-12-08 18:32:09.9480,-0.974,1.48,-0.853,2.62,-3.17,5.8
2022-12-08 18:32:09.9580,-1.324,1.699,-0.795,6.37,-5.46,6.38
2022-12-08 18:32:09.9680,-1.619,1.673,-0.706,9.76,-7.58,6.0
2022-12-08 18:32:09.9780,-1.868,1.373,-0.714,12.72,-7.27,5.31
2022-12-08 18:32:09.9890,-2.175,1.077,-0.592,15.36,-4.24,5.5
2022-12-08 18:32:09.9980,-2.086,0.863,-0.381,18.64,-1.27,4.25
2022-12-08 18:32:10.0090,-1.856,0.844,-0.158,18.05,0.88,1.99
2022-12-08 18:32:10.0180,-1.75,1.032,0.015,16.04,1.07,-0.48
2022-12-08 18:32:10.0290,-1.539,1.136,0.136,15.17,-0.8,-2.46
2022-12-08 18:32:10.0380,-1.157,1.091,0.278,13.16,-1.87,-3.87
2022-12-08 18:32:10.0480,-0.804,1.131,0.664,9.39,-1.47,-5.39
2022-12-08 18:32:10.0590,-0.559,1.275,0.989,5.88,-1.87,-9.17
2022-12-08 18:32:10.0680,-0.395,1.177,0.635,3.46,-3.25,-12.2
2022-12-08 18:32:10.0790,-0.387,1.044,0.123,1.81,-2.22,-8.47
2022-12-08 18:32:10.0890,-0.36,1.027,-0.452,1.67,-0.87,-3.15
2022-12-08 18:32:10.0990,-0.19,0.975,-0.67,1.31,-0.7,2.6
2022-12-08 18:32:10.1090,-0.017,0.936,-0.251,-0.48,-0.26,4.54
2022-12-08 18:32:10.1190,0.192,0.979,0.113,-2.32,0.01,0.1
2022-12-08 18:32:10.1290,0.694,1.085,1.118,-4.5,-0.54,-3.8
2022-12-08 18:32:10.1390,1.099,1.182,1.387,-9.53,-1.66,-13.79
2022-12-08 18:32:10.1490,0.807,1.267,0.421,-13.54,-2.6,-16.37
2022-12-08 18:32:10.1590,0.542,1.426,0.069,-10.67,-3.38,-6.75
2022-12-08 18:32:10.1690,0.433,1.536,-0.06,-8.01,-4.88,-3.12
2022-12-08 18:32:10.1790,0.429,1.563,-0.088,-6.87,-5.9,-1.68
2022-12-08 18:32:10.1890,0.489,1.481,-0.08,-6.74,-6.09,-1.23
2022-12-08 18:32:10.1990,0.631,1.293,-0.097,-7.24,-5.23,-1.15
2022-12-08 18:32:10.2090,0.642,1.126,-0.123,-8.51,-3.33,-0.84
2022-12-08 18:32:10.2190,0.539,1.014,-0.083,-8.47,-1.63,-0.48
2022-12-08 18:32:10.2290,0.468,0.932,-0.056,-7.29,-0.48,-0.78
2022-12-08 18:32:10.2390,0.534,0.864,-0.081,-6.42,0.37,-0.97
2022-12-08 18:32:10.2490,0.633,0.827,-0.135,-6.89,1.09,-0.65
2022-12-08 18:32:10.2590,0.622,0.842,-0.176,-7.63,1.49,-0.05
2022-12-08 18:32:10.2690,0.525,0.909,-0.199,-7.29,1.39,0.43
2022-12-08 18:32:10.2790,0.416,0.965,-0.224,-6.1,0.76,0.75
2022-12-08 18:32:10.2890,0.354,1.001,-0.263,-4.83,0.24,1.1
2022-12-08 18:32:10.2990,0.294,1.039,-0.292,-4.05,-0.08,1.59
2022-12-08 18:32:10.3090,0.243,1.051,-0.337,-3.3,-0.44,1.99
2022-12-08 18:32:10.3190,0.18,1.033,-0.402,-2.65,-0.53,2.54
2022-12-08 18:32:10.3290,0.081,1.031,-0.459,-1.9,-0.35,3.26
2022-12-08 18:32:10.3390,0.008,1.034,-0.491,-0.81,-0.33,3.87
2022-12-08 18:32:10.3490,-0.039,1.026,-0.47,0.02,-0.36,4.16
2022-12-08 18:32:10.3590,-0.089,1.038,-0.411,0.6,-0.29,3.88
2022-12-08 18:32:10.3690,-0.147,1.055,-0.345,1.21,-0.42,3.18
2022-12-08 18:32:10.3790,-0.189,1.068,-0.288,1.89,-0.61,2.36
2022-12-08 18:32:10.3890,-0.22,1.072,-0.243,2.43,-0.77,1.58
2022-12-08 18:32:10.3990,-0.25,1.077,-0.181,2.88,-0.86,0.87
2022-12-08 18:32:10.4090,-0.302,1.066,0.03,3.35,-0.97,-0.07
2022-12-08 18:32:10.4190,-0.752,0.976,1.917,4.04,-0.95,-2.44
2022-12-08 18:32:10.4300,-0.876,0.841,1.834,8.55,-0.1,-21.07
2022-12-08 18:32:10.4390,-0.488,0.711,-0.001,9.83,1.2,-20.28
2022-12-08 18:32:10.4490,-0.322,0.722,-0.303,6.13,2.45,-2.32
2022-12-08 18:32:10.4590,-0.276,0.835,-0.296,4.64,2.31,0.59
2022-12-08 18:32:10.4690,-0.318,0.919,-0.243,4.37,1.17,0.51
2022-12-08 18:32:10.4800,-0.38,0.979,-0.189,4.97,0.32,0.04
2022-12-08 18:32:10.4910,-0.426,0.989,-0.196,5.76,-0.28,-0.37
2022-12-08 18:32:10.5000,-0.46,0.958,-0.254,6.35,-0.37,-0.15
2022-12-08 18:32:10.5100,-0.468,0.94,-0.34,6.79,-0.05,0.62
2022-12-08 18:32:10.5200,-0.47,0.958,-0.449,6.93,0.15,1.66
2022-12-08 18:32:10.5300,-0.471,0.979,-0.563,6.99,0.0,2.91
2022-12-08 18:32:10.5400,-0.488,1.01,-0.635,7.01,-0.19,4.18
2022-12-08 18:32:10.5500,-0.546,1.06,-0.626,7.18,-0.48,4.97
2022-12-08 18:32:10.5600,-0.623,1.076,-0.545,7.73,-0.97,4.92
2022-12-08 18:32:10.5700,-0.68,1.042,-0.448,8.45,-1.11,4.11
2022-12-08 18:32:10.5800,-0.695,0.987,-0.351,8.93,-0.77,3.12
2022-12-08 18:32:10.5900,-0.704,0.965,-0.269,8.96,-0.21,2.1
2022-12-08 18:32:10.6020,-0.955,1.019,0.649,8.89,0.03,1.2
2022-12-08 18:32:10.6100,-1.5,1.237,1.959,11.16,-0.45,-7.71
2022-12-08 18:32:10.6200,-1.002,1.353,0.033,16.27,-2.52,-20.34
2022-12-08 18:32:10.6300,-0.838,1.42,-0.19,11.09,-3.59,-1.29
2022-12-08 18:32:10.6400,-0.698,1.45,-0.064,9.13,-4.21,0.97
2022-12-08 18:32:10.6500,-0.519,1.508,-0.054,7.34,-4.47,-0.24
2022-12-08 18:32:10.6600,-0.402,1.635,-0.077,5.15,-5.03,-0.32
2022-12-08 18:32:10.6700,-0.306,1.82,-0.14,3.55,-6.27,-0.03
2022-12-08 18:32:10.6800,-0.213,1.999,-0.253,2.14,-8.11,0.68
2022-12-08 18:32:10.6900,-0.123,2.128,-0.386,0.79,-9.91,1.89
2022-12-08 18:32:10.7010,0.033,2.209,-0.48,-0.52,-11.24,3.31
2022-12-08 18:32:10.7100,0.178,2.222,-0.48,-2.43,-12.1,4.32
2022-12-08 18:32:10.7210,0.279,2.144,-0.405,-4.17,-12.3,4.36
2022-12-08 18:32:10.7310,0.331,1.963,-0.294,-5.43,-11.61,3.61
2022-12-08 18:32:10.7400,0.366,1.754,-0.194,-6.16,-9.91,2.46
2022-12-08 18:32:10.7500,0.363,1.544,-0.118,-6.68,-7.92,1.4
2022-12-08 18:32:10.7600,0.308,1.333,-0.057,-6.81,-5.91,0.55
2022-12-08 18:32:10.7700,0.276,1.132,-0.05,-6.41,-3.91,-0.18
2022-12-08 18:32:10.7800,0.281,0.912,-0.073,-6.25,-2.0,-0.41
2022-12-08 18:32:10.7910,0.359,0.804,0.077,-6.48,0.06,-0.4
2022-12-08 18:32:10.8000,0.47,0.756,0.338,-7.44,1.01,-2.07
2022-12-08 18:32:10.8100,0.545,0.719,0.405,-8.74,1.36,-4.75
2022-12-08 18:32:10.8200,0.578,0.682,0.283,-9.67,1.63,-5.42
2022-12-08 18:32:10.8300,0.587,0.642,0.115,-10.17,1.91,-4.15
2022-12-08 18:32:10.8400,0.589,0.595,-0.039,-10.41,2.25,-2.38
2022-12-08 18:32:10.8500,0.574,0.523,-0.154,-10.54,2.67,-0.75
2022-12-08 18:32:10.8600,0.546,0.461,-0.207,-10.46,3.34,0.45
2022-12-08 18:32:10.8700,0.503,0.419,-0.154,-10.23,3.92,0.97
2022-12-08 18:32:10.8800,0.455,0.395,-0.006,-9.82,4.32,0.39
2022-12-08 18:32:10.8910,0.477,0.408,0.168,-9.34,4.55,-1.16
2022-12-08 18:32:10.9010,0.557,0.457,0.243,-9.52,4.43,-2.96
2022-12-08 18:32:10.9100,0.587,0.493,0.176,-10.27,3.96,-3.77
2022-12-08 18:32:10.9200,0.567,0.515,0.064,-10.49,3.63,-3.2
2022-12-08 18:32:10.9310,0.524,0.536,0.052,-10.2,3.45,-2.18
2022-12-08 18:32:10.9410,0.467,0.568,0.173,-9.68,3.29,-2.15
2022-12-08 18:32:10.9500,0.357,0.633,0.351,-8.99,3.03,-3.39
2022-12-08 18:32:10.9610,0.196,0.754,0.529,-7.78,2.45,-5.15
2022-12-08 18:32:10.9710,0.037,0.88,0.668,-6.07,1.33,-6.9
2022-12-08 18:32:10.9810,-0.249,0.974,0.497,-4.36,0.15,-8.26
2022-12-08 18:32:10.9910,-0.469,1.06,-0.229,-1.41,-0.7,-6.58
2022-12-08 18:32:11.0010,-0.565,1.197,-0.956,0.87,-1.49,0.56
2022-12-08 18:32:11.0110,-0.904,1.511,-0.974,1.87,-2.79,7.77
2022-12-08 18:32:11.0210,-1.431,1.886,-0.96,5.19,-5.85,8.11
2022-12-08 18:32:11.0310,-2.035,2.015,-0.939,10.33,-9.51,8.19
2022-12-08 18:32:11.0410,-2.249,1.7,-0.807,16.31,-10.72,8.22
2022-12-08 18:32:11.0520,-2.345,1.227,-0.656,18.6,-7.54,7.01
2022-12-08 18:32:11.0620,-2.154,0.796,-0.386,19.83,-2.82,5.39
2022-12-08 18:32:11.0710,-1.759,0.556,-0.161,18.25,1.48,2.44
2022-12-08 18:32:11.0810,-1.495,0.534,-0.036,14.67,3.85,-0.11
2022-12-08 18:32:11.0910,-1.297,0.766,0.086,12.3,4.06,-1.66
2022-12-08 18:32:11.1010,-0.732,1.048,0.611,10.5,1.76,-3.11
2022-12-08 18:32:11.1110,-0.391,1.295,1.239,5.05,-1.01,-8.38
2022-12-08 18:32:11.1210,-0.631,1.285,0.884,1.77,-3.41,-14.5
2022-12-08 18:32:11.1310,-0.725,1.22,0.191,4.1,-3.27,-10.83
2022-12-08 18:32:11.1410,-0.517,1.237,-0.39,4.9,-2.61,-3.8
2022-12-08 18:32:11.1510,-0.185,1.333,-0.298,2.73,-2.82,1.88
2022-12-08 18:32:11.1610,0.418,1.415,1.307,-0.64,-3.85,0.66
2022-12-08 18:32:11.1710,0.505,1.267,1.172,-6.63,-4.73,-15.29
2022-12-08 18:32:11.1810,0.193,1.013,0.19,-7.58,-3.32,-14.01
2022-12-08 18:32:11.1910,0.23,0.905,-0.013,-4.64,-0.85,-4.34
2022-12-08 18:32:11.2010,0.448,0.872,-0.081,-5.12,0.19,-2.28
2022-12-08 18:32:11.2110,0.478,0.907,-0.106,-7.32,0.52,-1.52
2022-12-08 18:32:11.2210,0.371,1.029,-0.114,-7.64,0.19,-1.18
2022-12-08 18:32:11.2310,0.323,1.197,-0.113,-6.59,-0.99,-1.01
2022-12-08 18:32:11.2410,0.33,1.319,-0.076,-6.1,-2.6,-0.92
2022-12-08 18:32:11.2510,0.366,1.378,-0.077,-6.14,-3.76,-1.15
2022-12-08 18:32:11.2610,0.469,1.389,-0.145,-6.45,-4.3,-1.0
2022-12-08 18:32:11.2710,0.509,1.389,-0.229,-7.38,-4.35,-0.18
2022-12-08 18:32:11.2810,0.555,1.319,-0.27,-7.66,-4.3,0.79
2022-12-08 18:32:11.2910,0.587,1.205,-0.253,-7.96,-3.55,1.33
2022-12-08 18:32:11.3020,0.626,1.1,-0.254,-8.08,-2.37,1.27
2022-12-08 18:32:11.3110,0.697,1.007,-0.305,-8.23,-1.28,1.38
2022-12-08 18:32:11.3210,0.741,0.929,-0.4,-8.66,-0.3,1.95
2022-12-08 18:32:11.3320,0.68,0.89,-0.405,-8.8,0.53,2.93
2022-12-08 18:32:11.3420,0.541,0.855,-0.274,-7.88,0.95,3.0
2022-12-08 18:32:11.3510,0.355,0.819,-0.184,-6.23,1.32,1.74
2022-12-08 18:32:11.3620,0.205,0.79,-0.136,-4.13,1.7,0.86
2022-12-08 18:32:11.3720,0.132,0.786,-0.144,-2.45,2.01,0.41
2022-12-08 18:32:11.3820,0.091,0.814,-0.179,-1.55,2.05,0.49
2022-12-08 18:32:11.3920,0.042,0.878,-0.197,-1.0,1.78,0.83
2022-12-08 18:32:11.4020,-0.02,0.96,-0.183,-0.38,1.15,0.96
2022-12-08 18:32:11.4120,-0.058,1.032,-0.166,0.33,0.33,0.74
2022-12-08 18:32:11.4220,-0.086,1.094,-0.163,0.8,-0.39,0.46
2022-12-08 18:32:11.4320,-0.117,1.145,-0.154,1.17,-1.02,0.27
2022-12-08 18:32:11.4420,-0.149,1.179,-0.14,1.55,-1.55,0.0
2022-12-08 18:32:11.4520,-0.19,1.187,-0.118,1.95,-1.93,-0.36
2022-12-08 18:32:11.4620,-0.317,1.159,0.166,2.43,-2.06,-0.82
2022-12-08 18:32:11.4720,-0.737,1.055,1.246,3.74,-1.84,-3.84
2022-12-08 18:32:11.4820,-0.799,0.866,1.257,7.85,-0.84,-14.54
2022-12-08 18:32:11.4920,-0.481,0.702,0.349,8.46,0.99,-14.72
2022-12-08 18:32:11.5020,-0.284,0.709,-0.094,5.42,2.57,-5.89
2022-12-08 18:32:11.5120,-0.238,0.829,-0.233,3.62,2.48,-1.61
2022-12-08 18:32:11.5220,-0.316,0.941,-0.248,3.37,1.27,-0.27
2022-12-08 18:32:11.5320,-0.402,1.022,-0.203,4.36,0.16,-0.09
2022-12-08 18:32:11.5420,-0.46,1.055,-0.196,5.43,-0.65,-0.45
2022-12-08 18:32:11.5520,-0.494,1.044,-0.227,6.19,-0.96,-0.37
2022-12-08 18:32:11.5620,-0.51,1.024,-0.301,6.68,-0.84,0.1
2022-12-08 18:32:11.5720,-0.495,1.013,-0.408,6.92,-0.63,1.02
2022-12-08 18:32:11.5820,-0.466,0.987,-0.532,6.83,-0.49,2.24
2022-12-08 18:32:11.5920,-0.443,0.964,-0.618,6.58,-0.23,3.6
2022-12-08 18:32:11.6020,-0.466,0.994,-0.63,6.36,0.02,4.55
2022-12-08 18:32:11.6120,-0.528,1.05,-0.586,6.58,-0.26,4.71
2022-12-08 18:32:11.6220,-0.588,1.062,-0.501,7.16,-0.81,4.28
2022-12-08 18:32:11.6320,-0.609,1.01,-0.393,7.69,-0.92,3.41
2022-12-08 18:32:11.6420,-0.608,0.966,-0.288,7.79,-0.4,2.3
2022-12-08 18:32:11.6520,-0.611,0.957,-0.189,7.64,0.04,1.21
2022-12-08 18:32:11.6620,-0.801,1.035,0.649,7.5,0.16,0.19
2022-12-08 18:32:11.6720,-1.321,1.31,2.2,9.16,-0.56,-7.91
2022-12-08 18:32:11.6820,-0.863,1.347,0.063,14.01,-3.18,-22.81
2022-12-08 18:32:11.6920,-0.649,1.309,-0.234,9.25,-3.49,-1.64
2022-12-08 18:32:11.7030,-0.559,1.313,-0.048,6.83,-3.09,1.36
2022-12-08 18:32:11.7120,-0.438,1.361,-0.024,5.6,-3.12,-0.43
2022-12-08 18:32:11.7220,-0.361,1.464,-0.059,4.04,-3.59,-0.63
2022-12-08 18:32:11.7320,-0.287,1.612,-0.133,2.89,-4.61,-0.24
2022-12-08 18:32:11.7430,-0.213,1.769,-0.216,1.77,-6.09,0.56
2022-12-08 18:32:11.7520,-0.134,1.917,-0.346,0.64,-7.68,1.46
2022-12-08 18:32:11.7630,-0.013,2.023,-0.44,-0.52,-9.18,2.84
2022-12-08 18:32:11.7730,0.096,2.071,-0.46,-2.05,-10.29,3.85
2022-12-08 18:32:11.7830,0.189,2.026,-0.438,-3.41,-10.83,4.1
2022-12-08 18:32:11.7930,0.264,1.882,-0.36,-4.58,-10.47,3.89
2022-12-08 18:32:11.8030,0.276,1.683,-0.264,-5.53,-9.12,3.08
2022-12-08 18:32:11.8130,0.279,1.478,-0.201,-5.83,-7.23,2.06
2022-12-08 18:32:11.8230,0.279,1.283,-0.151,-6.01,-5.28,1.34
2022-12-08 18:32:11.8330,0.279,1.114,-0.124,-6.14,-3.42,0.74
2022-12-08 18:32:11.8430,0.28,0.946,-0.142,-6.27,-1.81,0.34
2022-12-08 18:32:11.8530,0.276,0.77,-0.177,-6.4,-0.24,0.38
2022-12-08 18:32:11.8630,0.323,0.695,-0.127,-6.5,1.41,0.55
2022-12-08 18:32:11.8730,0.399,0.691,-0.043,-7.12,2.05,-0.11
2022-12-08 18:32:11.8830,0.452,0.683,0.027,-8.03,2.0,-1.07
2022-12-08 18:32:11.8930,0.463,0.639,0.103,-8.69,2.0,-1.84
2022-12-08 18:32:11.9030,0.443,0.595,0.189,-8.93,2.35,-2.6
2022-12-08 18:32:11.9130,0.42,0.561,0.184,-8.86,2.73,-3.38
2022-12-08 18:32:11.9230,0.411,0.537,0.103,-8.74,3.04,-3.24
2022-12-08 18:32:11.9330,0.403,0.507,-0.006,-8.71,3.25,-2.33
2022-12-08 18:32:11.9430,0.416,0.479,-0.003,-8.68,3.53,-1.22
2022-12-08 18:32:11.9530,0.472,0.5,0.162,-8.8,3.79,-1.29
2022-12-08 18:32:11.9630,0.553,0.549,0.306,-9.34,3.59,-2.99
2022-12-08 18:32:11.9730,0.583,0.579,0.307,-10.09,3.12,-4.48
2022-12-08 18:32:11.9830,0.552,0.598,0.216,-10.32,2.84,-4.55
2022-12-08 18:32:11.9930,0.515,0.614,0.155,-9.94,2.69,-3.71
2022-12-08 18:32:12.0030,0.488,0.619,0.174,-9.48,2.58,-3.15
2022-12-08 18:32:12.0130,0.421,0.654,0.213,-9.11,2.57,-3.36
2022-12-08 18:32:12.0230,0.284,0.738,0.193,-8.33,2.29,-3.75
2022-12-08 18:32:12.0330,0.111,0.858,0.301,-6.85,1.53,-3.58
2022-12-08 18:32:12.0430,-0.137,0.993,0.512,-5.01,0.4,-4.71
2022-12-08 18:32:12.0530,-0.402,1.032,0.093,-2.43,-0.88,-6.87
2022-12-08 18:32:12.0630,-0.511,1.083,-0.645,0.32,-1.22,-2.86
2022-12-08 18:32:12.0730,-0.746,1.273,-0.867,1.47,-1.7,4.36
2022-12-08 18:32:12.0830,-1.122,1.582,-0.857,3.79,-3.54,6.6
2022-12-08 18:32:12.0930,-1.507,1.812,-0.888,7.45,-6.54,6.68
2022-12-08 18:32:12.1030,-1.923,1.655,-0.953,11.26,-8.74,7.23
2022-12-08 18:32:12.1130,-2.294,1.279,-0.905,15.51,-7.11,8.09
2022-12-08 18:32:12.1230,-2.334,0.959,-0.651,19.38,-3.32,7.7
2022-12-08 18:32:12.1340,-2.014,0.869,-0.324,20.0,-0.12,5.12
2022-12-08 18:32:12.1440,-1.769,0.975,-0.081,17.04,0.78,1.7
2022-12-08 18:32:12.1530,-1.523,1.052,0.067,14.74,-0.28,-0.96
2022-12-08 18:32:12.1630,-1.175,1.068,0.228,12.35,-1.08,-2.65
2022-12-08 18:32:12.1740,-0.863,1.22,0.635,8.87,-1.28,-4.39
2022-12-08 18:32:12.1840,-0.559,1.364,0.911,5.75,-2.8,-8.44
2022-12-08 18:32:12.1940,-0.351,1.28,0.668,2.72,-4.21,-11.05
2022-12-08 18:32:12.2040,-0.363,1.152,0.152,0.63,-3.35,-8.47
2022-12-08 18:32:12.2140,-0.283,1.07,-0.484,0.7,-2.07,-3.2
2022-12-08 18:32:12.2240,-0.039,0.931,-0.615,-0.16,-1.3,3.03
2022-12-08 18:32:12.2340,0.205,0.917,0.032,-2.64,-0.02,4.02
2022-12-08 18:32:12.2440,0.783,1.022,1.432,-5.08,0.01,-2.69
2022-12-08 18:32:12.2540,0.979,1.047,1.511,-10.77,-1.07,-16.59
2022-12-08 18:32:12.2640,0.597,1.022,0.347,-12.69,-1.3,-17.34
2022-12-08 18:32:12.2740,0.464,1.141,0.026,-8.9,-1.02,-5.83
2022-12-08 18:32:12.2840,0.367,1.287,-0.065,-7.52,-2.13,-2.56
2022-12-08 18:32:12.2940,0.342,1.374,-0.077,-6.48,-3.51,-1.57
2022-12-08 18:32:12.3040,0.364,1.384,-0.1,-6.13,-4.31,-1.34
2022-12-08 18:32:12.3140,0.458,1.306,-0.102,-6.25,-4.35,-0.98
2022-12-08 18:32:12.3240,0.527,1.164,-0.084,-7.07,-3.53,-0.83
2022-12-08 18:32:12.3340,0.499,1.058,-0.071,-7.62,-2.08,-0.88
2022-12-08 18:32:12.3440,0.48,0.992,-0.1,-7.19,-0.98,-0.87
2022-12-08 18:32:12.3540,0.494,0.933,-0.152,-6.84,-0.27,-0.46
2022-12-08 18:32:12.3640,0.519,0.896,-0.182,-6.8,0.36,0.18
2022-12-08 18:32:12.3740,0.549,0.88,-0.215,-6.84,0.79,0.6
2022-12-08 18:32:12.3840,0.566,0.878,-0.274,-6.91,1.0,1.02
2022-12-08 18:32:12.3940,0.486,0.911,-0.321,-6.85,1.06,1.71
2022-12-08 18:32:12.4040,0.397,0.959,-0.346,-5.85,0.77,2.25
2022-12-08 18:32:12.4140,0.327,0.998,-0.323,-4.77,0.32,2.58
2022-12-08 18:32:12.4240,0.262,1.009,-0.314,-3.89,-0.03,2.41
2022-12-08 18:32:12.4340,0.207,1.01,-0.344,-3.1,-0.14,2.4
2022-12-08 18:32:12.4440,0.131,1.014,-0.383,-2.42,-0.13,2.75
2022-12-08 18:32:12.4540,0.056,1.007,-0.414,-1.54,-0.16,3.16
2022-12-08 18:32:12.4640,-0.001,1.003,-0.407,-0.67,-0.09,3.47
2022-12-08 18:32:12.4760,-0.038,1.008,-0.371,0.0,-0.06,3.36
2022-12-08 18:32:12.4840,-0.077,1.028,-0.328,0.48,-0.11,2.93
2022-12-08 18:32:12.4960,-0.117,1.047,-0.295,0.98,-0.32,2.38
2022-12-08 18:32:12.5040,-0.165,1.062,-0.251,1.51,-0.52,1.88
2022-12-08 18:32:12.5140,-0.208,1.087,-0.19,2.13,-0.71,1.23
2022-12-08 18:32:12.5240,-0.244,1.104,-0.09,2.73,-1.0,0.36
2022-12-08 18:32:12.5340,-0.556,1.057,0.898,3.27,-1.23,-0.91
2022-12-08 18:32:12.5450,-0.947,0.926,1.75,6.45,-0.81,-10.77
2022-12-08 18:32:12.5540,-0.654,0.781,0.474,10.33,0.45,-19.17
2022-12-08 18:32:12.5640,-0.403,0.694,-0.128,7.52,1.86,-6.72
2022-12-08 18:32:12.5740,-0.32,0.74,-0.153,5.16,2.68,-0.9
2022-12-08 18:32:12.5850,-0.305,0.843,-0.124,4.49,2.2,-0.71
2022-12-08 18:32:12.5960,-0.36,0.956,-0.092,4.52,1.16,-0.98
2022-12-08 18:32:12.6050,-0.389,1.044,-0.111,5.22,0.04,-1.22
2022-12-08 18:32:12.6150,-0.384,1.064,-0.157,5.66,-0.82,-0.9
2022-12-08 18:32:12.6250,-0.355,1.016,-0.212,5.73,-1.01,-0.29
2022-12-08 18:32:12.6350,-0.307,0.957,-0.275,5.53,-0.52,0.42
2022-12-08 18:32:12.6450,-0.281,0.943,-0.341,5.13,0.06,1.18
2022-12-08 18:32:12.6550,-0.304,0.967,-0.391,4.93,0.21,1.96
2022-12-08 18:32:12.6650,-0.367,1.004,-0.44,5.21,-0.03,2.55
2022-12-08 18:32:12.6750,-0.438,1.04,-0.487,5.86,-0.39,3.11
2022-12-08 18:32:12.6850,-0.508,1.073,-0.497,6.57,-0.74,3.61
2022-12-08 18:32:12.6950,-0.568,1.092,-0.478,7.24,-1.05,3.74
2022-12-08 18:32:12.7050,-0.613,1.076,-0.438,7.77,-1.23,3.55
2022-12-08 18:32:12.7150,-0.647,1.031,-0.378,8.13,-1.05,3.15
2022-12-08 18:32:12.7250,-0.679,0.992,-0.31,8.34,-0.59,2.54
2022-12-08 18:32:12.7350,-0.751,0.976,-0.136,8.51,-0.18,1.84
2022-12-08 18:32:12.7450,-1.347,1.06,1.346,9.06,0.0,0.12
2022-12-08 18:32:12.7550,-1.368,1.224,0.84,14.7,-0.76,-14.27
2022-12-08 18:32:12.7650,-0.977,1.329,-0.163,14.67,-2.33,-9.14
2022-12-08 18:32:12.7750,-0.892,1.385,-0.127,10.54,-3.32,0.8
2022-12-08 18:32:12.7850,-0.687,1.411,-0.107,9.34,-3.83,0.51
2022-12-08 18:32:12.7950,-0.523,1.505,-0.107,6.92,-4.06,0.34
2022-12-08 18:32:12.8050,-0.391,1.658,-0.147,4.87,-4.99,0.39
2022-12-08 18:32:12.8150,-0.268,1.848,-0.235,3.1,-6.51,0.85
2022-12-08 18:32:12.8250,-0.158,2.031,-0.374,1.43,-8.41,1.8
2022-12-08 18:32:12.8350,-0.017,2.188,-0.456,-0.1,-10.26,3.26
2022-12-08 18:32:12.8460,0.158,2.287,-0.479,-1.89,-11.88,4.15
2022-12-08 18:32:12.8560,0.286,2.27,-0.454,-3.96,-12.93,4.41
2022-12-08 18:32:12.8660,0.353,2.117,-0.349,-5.5,-12.84,4.15
2022-12-08 18:32:12.8770,0.388,1.889,-0.27,-6.38,-11.41,3.05
2022-12-08 18:32:12.8850,0.377,1.641,-0.219,-6.9,-9.23,2.17
2022-12-08 18:32:12.8950,0.36,1.414,-0.173,-6.93,-6.86,1.55
2022-12-08 18:32:12.9050,0.346,1.206,-0.156,-6.88,-4.69,0.96
2022-12-08 18:32:12.9150,0.33,0.945,-0.186,-6.87,-2.71,0.64
2022-12-08 18:32:12.9250,0.338,0.745,-0.129,-6.85,-0.22,0.73
2022-12-08 18:32:12.9350,0.406,0.695,0.001,-7.09,1.65,-0.03
2022-12-08 18:32:12.9450,0.451,0.644,0.259,-7.93,2.04,-1.49
2022-12-08 18:32:12.9550,0.473,0.592,0.406,-8.56,2.43,-4.11
2022-12-08 18:32:12.9650,0.509,0.563,0.304,-8.96,2.86,-5.53
2022-12-08 18:32:12.9750,0.529,0.546,0.127,-9.48,3.08,-4.42
2022-12-08 18:32:12.9850,0.534,0.526,-0.041,-9.81,3.19,-2.55
2022-12-08 18:32:12.9960,0.531,0.49,-0.159,-9.96,3.36,-0.79
2022-12-08 18:32:13.0060,0.503,0.459,-0.141,-9.99,3.68,0.39
2022-12-08 18:32:13.0160,0.454,0.433,0.016,-9.74,3.96,0.14
2022-12-08 18:32:13.0250,0.454,0.426,0.227,-9.25,4.2,-1.49
2022-12-08 18:32:13.0360,0.516,0.459,0.309,-9.24,4.26,-3.64
2022-12-08 18:32:13.0460,0.548,0.494,0.244,-9.8,3.96,-4.52
2022-12-08 18:32:13.0560,0.541,0.531,0.121,-10.06,3.63,-3.93
2022-12-08 18:32:13.0660,0.513,0.556,0.037,-9.91,3.3,-2.79
2022-12-08 18:32:13.0760,0.471,0.584,0.045,-9.55,3.09,-2.04
2022-12-08 18:32:13.0860,0.409,0.643,0.141,-9.01,2.86,-2.19
2022-12-08 18:32:13.0960,0.306,0.738,0.313,-8.27,2.34,-3.18
2022-12-08 18:32:13.1060,0.135,0.864,0.57,-7.12,1.47,-4.91
2022-12-08 18:32:13.1160,-0.145,0.95,0.544,-5.28,0.3,-7.45
2022-12-08 18:32:13.1260,-0.398,0.929,-0.016,-2.39,-0.48,-7.19
2022-12-08 18:32:13.1360,-0.519,0.959,-0.727,0.21,-0.22,-1.67
2022-12-08 18:32:13.1460,-0.808,1.183,-0.927,1.46,-0.47,5.37
2022-12-08 18:32:13.1560,-1.277,1.578,-0.909,4.26,-2.66,7.46
2022-12-08 18:32:13.1660,-1.844,1.933,-0.857,8.79,-6.53,7.48
2022-12-08 18:32:13.1760,-2.222,1.871,-0.89,14.38,-9.96,7.17
2022-12-08 18:32:13.1870,-2.602,1.525,-0.836,18.27,-9.28,7.57
2022-12-08 18:32:13.1970,-2.495,1.049,-0.511,22.26,-5.8,6.89
2022-12-08 18:32:13.2070,-2.06,0.733,-0.208,21.46,-1.09,3.42
2022-12-08 18:32:13.2160,-1.683,0.639,-0.043,17.39,2.01,0.14
2022-12-08 18:32:13.2260,-1.32,0.818,0.068,13.81,2.91,-1.76
2022-12-08 18:32:13.2360,-0.741,1.029,0.378,10.28,1.11,-3.05
2022-12-08 18:32:13.2460,-0.303,1.229,0.842,4.59,-0.99,-6.19
2022-12-08 18:32:13.2560,-0.386,1.425,0.799,0.27,-2.95,-10.69
2022-12-08 18:32:13.2660,-0.559,1.445,0.258,1.02,-4.84,-10.11
2022-12-08 18:32:13.2760,-0.428,1.394,-0.195,2.59,-5.03,-4.57
2022-12-08 18:32:13.2860,-0.124,1.368,-0.462,1.18,-4.54,-0.02
2022-12-08 18:32:13.2960,0.35,1.306,0.727,-1.89,-4.37,2.35
2022-12-08 18:32:13.3060,0.715,1.189,1.352,-6.57,-3.86,-9.6
2022-12-08 18:32:13.3160,0.561,0.994,0.616,-10.18,-2.75,-15.86
2022-12-08 18:32:13.3260,0.458,0.907,0.118,-8.69,-0.85,-8.66
2022-12-08 18:32:13.3360,0.523,0.89,-0.109,-7.68,0.0,-3.75
2022-12-08 18:32:13.3460,0.547,0.96,-0.116,-8.28,0.19,-1.49
2022-12-08 18:32:13.3560,0.446,1.105,-0.069,-8.44,-0.45,-1.39
2022-12-08 18:32:13.3660,0.38,1.246,-0.058,-7.35,-1.83,-1.81
2022-12-08 18:32:13.3760,0.411,1.335,-0.044,-6.61,-3.17,-1.85
2022-12-08 18:32:13.3860,0.476,1.355,-0.044,-6.81,-3.99,-1.9
2022-12-08 18:32:13.3970,0.537,1.327,-0.033,-7.36,-4.12,-1.8
2022-12-08 18:32:13.4060,0.532,1.283,-0.023,-7.83,-3.79,-1.79
2022-12-08 18:32:13.4170,0.468,1.209,-0.04,-7.65,-3.29,-1.76
2022-12-08 18:32:13.4260,0.401,1.111,-0.07,-6.88,-2.51,-1.46
2022-12-08 18:32:13.4360,0.45,1.001,-0.087,-6.07,-1.48,-1.03
2022-12-08 18:32:13.4470,0.501,0.925,-0.093,-6.38,-0.35,-0.74
2022-12-08 18:32:13.4570,0.488,0.896,-0.09,-6.7,0.45,-0.58
2022-12-08 18:32:13.4670,0.52,0.882,-0.104,-6.37,0.79,-0.51
2022-12-08 18:32:13.4770,0.544,0.885,-0.172,-6.46,0.97,-0.27
2022-12-08 18:32:13.4870,0.496,0.912,-0.242,-6.46,0.98,0.48
2022-12-08 18:32:13.4970,0.373,0.953,-0.25,-5.75,0.76,1.27
2022-12-08 18:32:13.5070,0.254,0.985,-0.296,-4.31,0.38,1.44
2022-12-08 18:32:13.5170,0.192,0.998,-0.364,-2.93,0.09,1.97
2022-12-08 18:32:13.5270,0.102,0.995,-0.425,-2.14,-0.03,2.69
2022-12-08 18:32:13.5370,0.024,0.995,-0.458,-1.08,0.01,3.34
2022-12-08 18:32:13.5470,-0.012,0.98,-0.467,-0.16,0.01,3.66
2022-12-08 18:32:13.5570,-0.054,0.973,-0.437,0.34,0.15,3.71
2022-12-08 18:32:13.5670,-0.108,0.987,-0.388,0.9,0.21,3.32
2022-12-08 18:32:13.5770,-0.18,1.02,-0.329,1.58,0.05,2.72
2022-12-08 18:32:13.5870,-0.251,1.051,-0.257,2.42,-0.3,2.0
2022-12-08 18:32:13.5970,-0.277,1.078,-0.196,3.27,-0.64,1.12
2022-12-08 18:32:13.6070,-0.296,1.089,-0.162,3.7,-0.95,0.32
2022-12-08 18:32:13.6170,-0.363,1.084,-0.12,4.1,-1.13,-0.24
2022-12-08 18:32:13.6270,-0.807,1.05,0.912,4.99,-1.17,-0.91
2022-12-08 18:32:13.6370,-1.396,0.913,2.113,9.52,-0.9,-11.21
2022-12-08 18:32:13.6470,-0.906,0.778,0.487,15.4,0.42,-23.03
2022-12-08 18:32:13.6570,-0.554,0.792,-0.348,10.71,1.72,-7.09
2022-12-08 18:32:13.6670,-0.518,0.911,-0.378,7.4,1.55,1.1
2022-12-08 18:32:13.6770,-0.51,0.991,-0.298,7.21,0.36,1.42
2022-12-08 18:32:13.6870,-0.522,1.014,-0.253,7.26,-0.44,0.73
2022-12-08 18:32:13.6970,-0.519,0.992,-0.301,7.49,-0.66,0.41
2022-12-08 18:32:13.7070,-0.495,0.969,-0.385,7.52,-0.42,1.05
2022-12-08 18:32:13.7170,-0.467,0.973,-0.465,7.31,-0.17,2.05
2022-12-08 18:32:13.7270,-0.449,0.983,-0.537,7.04,-0.19,3.0
2022-12-08 18:32:13.7370,-0.459,1.019,-0.575,6.86,-0.26,3.82
2022-12-08 18:32:13.7470,-0.505,1.094,-0.529,6.92,-0.6,4.24
2022-12-08 18:32:13.7570,-0.541,1.146,-0.437,7.32,-1.32,3.76
2022-12-08 18:32:13.7670,-0.55,1.144,-0.337,7.59,-1.82,2.81
2022-12-08 18:32:13.7770,-0.537,1.096,-0.237,7.54,-1.78,1.76
2022-12-08 18:32:13.7870,-0.541,1.077,-0.132,7.25,-1.28,0.72
2022-12-08 18:32:13.7970,-0.882,1.166,0.99,7.09,-1.06,-0.35
2022-12-08 18:32:13.8070,-1.248,1.368,1.743,10.19,-1.87,-11.19
2022-12-08 18:32:13.8170,-0.738,1.376,-0.152,13.51,-3.77,-18.3
2022-12-08 18:32:13.8270,-0.663,1.407,-0.245,8.24,-3.8,0.44
2022-12-08 18:32:13.8370,-0.615,1.423,-0.099,7.2,-4.07,1.41
2022-12-08 18:32:13.8480,-0.505,1.478,-0.058,6.39,-4.21,-0.01
2022-12-08 18:32:13.8570,-0.413,1.553,-0.075,4.92,-4.74,-0.4
2022-12-08 18:32:13.8680,-0.329,1.636,-0.13,3.61,-5.49,-0.2
2022-12-08 18:32:13.8780,-0.253,1.743,-0.215,2.36,-6.32,0.4
2022-12-08 18:32:13.8880,-0.175,1.863,-0.34,1.18,-7.42,1.32
2022-12-08 18:32:13.8980,-0.08,1.97,-0.462,0.0,-8.65,2.66
2022-12-08 18:32:13.9080,0.042,2.075,-0.516,-1.31,-9.76,3.96
2022-12-08 18:32:13.9180,0.135,2.118,-0.525,-2.84,-10.87,4.57
2022-12-08 18:32:13.9280,0.204,2.029,-0.477,-4.05,-11.37,4.69
2022-12-08 18:32:13.9380,0.262,1.862,-0.41,-4.99,-10.57,4.21
2022-12-08 18:32:13.9480,0.275,1.656,-0.364,-5.78,-9.02,3.5
2022-12-08 18:32:13.9580,0.306,1.45,-0.302,-6.1,-7.07,2.96
2022-12-08 18:32:13.9680,0.307,1.275,-0.255,-6.58,-5.13,2.25
2022-12-08 18:32:13.9780,0.315,1.11,-0.247,-6.75,-3.48,1.68
2022-12-08 18:32:13.9880,0.36,0.928,-0.253,-6.99,-1.94,1.46
2022-12-08 18:32:13.9980,0.391,0.743,-0.21,-7.58,-0.24,1.35
2022-12-08 18:32:14.0080,0.452,0.687,-0.054,-8.05,1.47,0.74
2022-12-08 18:32:14.0180,0.5,0.661,0.184,-8.81,1.91,-0.97
2022-12-08 18:32:14.0280,0.484,0.578,0.606,-9.46,2.05,-3.4
2022-12-08 18:32:14.0380,0.544,0.544,0.504,-9.48,2.77,-7.51
2022-12-08 18:32:14.0480,0.619,0.527,0.211,-10.23,3.04,-6.38
2022-12-08 18:32:14.0580,0.655,0.494,0.008,-11.09,3.16,-3.36
2022-12-08 18:32:14.0680,0.656,0.472,-0.078,-11.52,3.46,-1.3
2022-12-08 18:32:14.0780,0.649,0.462,-0.034,-11.55,3.65,-0.48
2022-12-08 18:32:14.0880,0.651,0.45,0.114,-11.47,3.74,-1.0
2022-12-08 18:32:14.0980,0.623,0.465,0.202,-11.46,3.85,-2.56
2022-12-08 18:32:14.1080,0.583,0.497,0.145,-11.13,3.73,-3.51
2022-12-08 18:32:14.1180,0.549,0.525,0.046,-10.66,3.45,-3.03
2022-12-08 18:32:14.1280,0.512,0.546,0.087,-10.23,3.21,-2.14
2022-12-08 18:32:14.1380,0.453,0.582,0.276,-9.75,3.06,-2.62
2022-12-08 18:32:14.1480,0.332,0.669,0.41,-9.04,2.76,-4.51
2022-12-08 18:32:14.1580,0.168,0.788,0.439,-7.73,1.98,-5.83
2022-12-08 18:32:14.1680,-0.023,0.898,0.41,-5.97,0.88,-6.15
2022-12-08 18:32:14.1780,-0.284,0.926,0.066,-3.93,-0.13,-5.94
2022-12-08 18:32:14.1880,-0.426,0.949,-0.615,-1.21,-0.35,-2.63
2022-12-08 18:32:14.1980,-0.638,1.11,-0.967,0.29,-0.53,4.04
2022-12-08 18:32:14.2080,-1.048,1.445,-0.96,2.4,-2.09,7.56
2022-12-08 18:32:14.2180,-1.525,1.85,-0.893,6.38,-5.36,7.65
2022-12-08 18:32:14.2280,-1.982,1.901,-0.847,11.05,-9.28,7.23
2022-12-08 18:32:14.2380,-2.447,1.582,-0.833,15.67,-9.69,7.0
2022-12-08 18:32:14.2490,-2.524,1.138,-0.623,20.46,-6.45,6.94
2022-12-08 18:32:14.2580,-2.166,0.916,-0.272,21.49,-2.02,4.74
2022-12-08 18:32:14.2690,-1.892,0.994,-0.035,18.21,0.19,1.04
2022-12-08 18:32:14.2790,-1.397,1.044,0.15,15.68,-0.58,-1.58
2022-12-08 18:32:14.2890,-0.786,0.952,0.371,10.9,-1.09,-3.63
2022-12-08 18:32:14.2990,-0.623,0.965,0.533,4.93,-0.22,-5.93
2022-12-08 18:32:14.3080,-0.655,1.109,0.502,3.32,-0.36,-7.56
2022-12-08 18:32:14.3190,-0.516,1.129,0.233,3.59,-1.77,-7.2
2022-12-08 18:32:14.3290,-0.356,1.152,-0.011,2.15,-1.96,-4.43
2022-12-08 18:32:14.3390,-0.196,1.195,-0.208,0.5,-2.17,-1.87
2022-12-08 18:32:14.3490,-0.005,1.182,-0.358,-1.15,-2.61,0.12
2022-12-08 18:32:14.3590,0.32,1.117,0.318,-3.1,-2.55,1.44
2022-12-08 18:32:14.3690,0.624,1.06,1.01,-6.34,-1.97,-5.4
2022-12-08 18:32:14.3790,0.624,0.947,0.803,-9.35,-1.45,-12.3
2022-12-08 18:32:14.3890,0.482,0.877,0.219,-9.33,-0.34,-10.27
2022-12-08 18:32:14.3990,0.441,0.912,-0.025,-7.9,0.38,-4.5
2022-12-08 18:32:14.4090,0.352,1.031,-0.073,-7.42,0.08,-2.05
2022-12-08 18:32:14.4190,0.23,1.174,-0.048,-6.44,-1.05,-1.53
2022-12-08 18:32:14.4290,0.156,1.262,-0.029,-5.13,-2.4,-1.71
2022-12-08 18:32:14.4390,0.125,1.278,-0.037,-4.3,-3.21,-1.81
2022-12-08 18:32:14.4490,0.163,1.232,-0.045,-3.93,-3.31,-1.62
2022-12-08 18:32:14.4590,0.264,1.145,-0.05,-4.24,-2.82,-1.41
2022-12-08 18:32:14.4690,0.342,1.043,-0.079,-5.16,-1.93,-1.22
2022-12-08 18:32:14.4790,0.35,0.974,-0.115,-5.83,-0.87,-0.8
2022-12-08 18:32:14.4890,0.313,0.936,-0.126,-5.78,-0.15,-0.32
2022-12-08 18:32:14.4990,0.289,0.922,-0.107,-5.28,0.28,-0.11
2022-12-08 18:32:14.5090,0.297,0.919,-0.098,-4.89,0.47,-0.19
2022-12-08 18:32:14.5190,0.338,0.927,-0.125,-4.8,0.54,-0.19
2022-12-08 18:32:14.5290,0.354,0.962,-0.171,-5.02,0.51,0.17
2022-12-08 18:32:14.5390,0.363,1.012,-0.247,-4.98,0.21,0.71
2022-12-08 18:32:14.5490,0.389,1.05,-0.333,-4.88,-0.25,1.53
2022-12-08 18:32:14.5590,0.309,1.071,-0.35,-4.93,-0.59,2.45
2022-12-08 18:32:14.5690,0.21,1.066,-0.358,-3.94,-0.77,2.69
2022-12-08 18:32:14.5790,0.135,1.034,-0.363,-2.78,-0.71,2.83
2022-12-08 18:32:14.5890,0.042,0.988,-0.376,-1.86,-0.37,2.92
2022-12-08 18:32:14.5990,-0.037,0.953,-0.375,-0.78,0.09,3.08
2022-12-08 18:32:14.6090,-0.073,0.927,-0.338,0.17,0.43,3.07
2022-12-08 18:32:14.6190,-0.106,0.918,-0.306,0.67,0.69,2.67
2022-12-08 18:32:14.6290,-0.137,0.923,-0.284,1.16,0.77,2.28
2022-12-08 18:32:14.6390,-0.167,0.935,-0.253,1.63,0.71,1.96
2022-12-08 18:32:14.6490,-0.195,0.959,-0.21,2.1,0.57,1.51
2022-12-08 18:32:14.6590,-0.229,0.991,-0.165,2.56,0.31,0.9
2022-12-08 18:32:14.6690,-0.268,1.012,-0.126,3.1,-0.05,0.24
2022-12-08 18:32:14.6790,-0.318,0.994,-0.029,3.68,-0.32,-0.41
2022-12-08 18:32:14.6900,-0.569,0.9,0.974,4.35,-0.22,-1.63
2022-12-08 18:32:14.7000,-0.806,0.803,1.595,6.9,0.66,-11.64
2022-12-08 18:32:14.7090,-0.593,0.772,0.408,9.23,1.59,-17.81
2022-12-08 18:32:14.7200,-0.402,0.812,-0.107,7.14,1.89,-6.24
2022-12-08 18:32:14.7300,-0.309,0.924,-0.192,5.3,1.47,-1.26
2022-12-08 18:32:14.7400,-0.276,1.021,-0.248,4.45,0.35,-0.46
2022-12-08 18:32:14.7500,-0.322,1.069,-0.252,4.23,-0.61,0.11
2022-12-08 18:32:14.7600,-0.396,1.072,-0.242,4.81,-1.09,0.22
2022-12-08 18:32:14.7700,-0.463,1.054,-0.254,5.66,-1.1,0.26
2022-12-08 18:32:14.7800,-0.509,1.027,-0.296,6.42,-0.91,0.54
2022-12-08 18:32:14.7900,-0.522,0.971,-0.365,6.93,-0.63,1.15
2022-12-08 18:32:14.8000,-0.514,0.913,-0.426,7.09,-0.05,2.01
2022-12-08 18:32:14.8100,-0.529,0.931,-0.447,7.0,0.54,2.77
2022-12-08 18:32:14.8200,-0.564,1.001,-0.416,7.12,0.39,3.1
2022-12-08 18:32:14.8300,-0.591,1.026,-0.353,7.41,-0.27,2.88
2022-12-08 18:32:14.8400,-0.609,0.977,-0.275,7.6,-0.49,2.29
2022-12-08 18:32:14.8500,-0.618,0.929,-0.199,7.68,0.0,1.53
2022-12-08 18:32:14.8600,-0.848,0.977,0.686,7.63,0.49,0.73
2022-12-08 18:32:14.8700,-1.355,1.195,1.921,9.73,0.05,-7.85
2022-12-08 18:32:14.8800,-0.884,1.257,-0.026,14.49,-2.03,-19.72
2022-12-08 18:32:14.8900,-0.775,1.293,-0.213,9.62,-2.6,-0.45
2022-12-08 18:32:14.9000,-0.703,1.332,-0.117,8.24,-2.92,1.47
2022-12-08 18:32:14.9100,-0.56,1.387,-0.119,7.18,-3.28,0.59
2022-12-08 18:32:14.9200,-0.478,1.509,-0.15,5.38,-3.81,0.66
2022-12-08 18:32:14.9300,-0.407,1.664,-0.221,4.14,-5.02,1.03
2022-12-08 18:32:14.9400,-0.318,1.823,-0.325,3.01,-6.58,1.81
2022-12-08 18:32:14.9500,-0.217,1.952,-0.448,1.7,-8.19,2.94
2022-12-08 18:32:14.9600,-0.086,2.025,-0.561,0.3,-9.52,4.25
2022-12-08 18:32:14.9710,0.065,2.046,-0.584,-1.37,-10.31,5.45
2022-12-08 18:32:14.9800,0.189,2.01,-0.545,-3.18,-10.6,5.72
2022-12-08 18:32:14.9910,0.297,1.894,-0.489,-4.69,-10.33,5.33
2022-12-08 18:32:15.0000,0.307,1.715,-0.391,-5.98,-9.27,4.73
2022-12-08 18:32:15.0100,0.312,1.53,-0.299,-6.29,-7.58,3.67
2022-12-08 18:32:15.0210,0.291,1.348,-0.226,-6.51,-5.83,2.67
2022-12-08 18:32:15.0310,0.287,1.184,-0.162,-6.46,-4.11,1.83
2022-12-08 18:32:15.0400,0.295,1.049,-0.133,-6.58,-2.57,1.08
2022-12-08 18:32:15.0510,0.324,0.909,-0.16,-6.8,-1.32,0.67
2022-12-08 18:32:15.0600,0.365,0.771,-0.198,-7.23,-0.02,0.78
2022-12-08 18:32:15.0700,0.435,0.752,-0.108,-7.78,1.24,0.96
2022-12-08 18:32:15.0800,0.486,0.75,0.16,-8.61,1.34,-0.11
2022-12-08 18:32:15.0910,0.519,0.703,0.509,-9.24,1.28,-2.88
2022-12-08 18:32:15.1010,0.562,0.674,0.43,-9.7,1.66,-6.31
2022-12-08 18:32:15.1110,0.604,0.657,0.194,-10.23,1.89,-5.46
2022-12-08 18:32:15.1210,0.624,0.637,0.012,-10.73,2.04,-3.01
2022-12-08 18:32:15.1300,0.624,0.588,-0.146,-10.96,2.22,-1.12
2022-12-08 18:32:15.1410,0.611,0.517,-0.225,-10.96,2.7,0.46
2022-12-08 18:32:15.1510,0.59,0.468,-0.109,-10.79,3.42,1.16
2022-12-08 18:32:15.1610,0.584,0.468,0.19,-10.52,3.92,-0.12
2022-12-08 18:32:15.1710,0.581,0.496,0.421,-10.38,3.95,-3.17
2022-12-08 18:32:15.1810,0.531,0.532,0.477,-10.25,3.71,-5.51
2022-12-08 18:32:15.1910,0.428,0.594,0.471,-9.67,3.41,-6.08
2022-12-08 18:32:15.2010,0.281,0.695,0.396,-8.57,2.85,-5.99
2022-12-08 18:32:15.2110,0.162,0.802,0.275,-7.03,1.91,-5.23
2022-12-08 18:32:15.2210,0.092,0.924,0.304,-5.75,0.91,-4.05
2022-12-08 18:32:15.2310,-0.05,1.062,0.563,-4.94,-0.24,-4.42
2022-12-08 18:32:15.2410,-0.268,1.107,0.162,-3.39,-1.55,-7.11
2022-12-08 18:32:15.2510,-0.36,1.127,-0.603,-1.09,-1.95,-3.31
2022-12-08 18:32:15.2610,-0.557,1.259,-0.884,-0.07,-2.12,4.12
2022-12-08 18:32:15.2710,-0.9,1.46,-0.876,1.92,-3.38,6.88
2022-12-08 18:32:15.2810,-1.213,1.59,-0.785,5.27,-5.34,6.93
2022-12-08 18:32:15.2910,-1.462,1.496,-0.78,8.33,-6.57,6.27
2022-12-08 18:32:15.3010,-1.777,1.147,-0.835,10.87,-5.58,6.46
2022-12-08 18:32:15.3110,-2.057,0.915,-0.636,14.16,-2.06,7.15
2022-12-08 18:32:15.3210,-2.011,0.76,-0.42,17.16,0.3,5.18
2022-12-08 18:32:15.3310,-1.765,0.694,-0.196,16.98,1.87,2.86
2022-12-08 18:32:15.3410,-1.65,0.902,-0.024,14.79,2.54,0.37
2022-12-08 18:32:15.3510,-1.457,1.179,0.111,13.83,0.49,-1.65
2022-12-08 18:32:15.3610,-0.985,1.338,0.427,12.02,-2.28,-3.25
2022-12-08 18:32:15.3710,-0.641,1.444,0.931,7.43,-3.87,-6.52
2022-12-08 18:32:15.3810,-0.641,1.38,0.923,4.09,-4.91,-11.5
2022-12-08 18:32:15.3910,-0.607,1.18,0.447,4.14,-4.24,-11.3
2022-12-08 18:32:15.4010,-0.547,1.049,0.052,3.81,-2.23,-6.43
2022-12-08 18:32:15.4110,-0.419,0.982,-0.541,3.19,-0.9,-2.36
2022-12-08 18:32:15.4210,-0.183,0.927,-0.308,1.87,-0.29,3.35
2022-12-08 18:32:15.4310,0.231,0.957,0.539,-0.55,0.16,0.78
2022-12-08 18:32:15.4410,0.569,0.97,1.069,-4.71,-0.22,-7.77
2022-12-08 18:32:15.4510,0.454,0.901,0.581,-8.11,-0.4,-13.07
2022-12-08 18:32:15.4610,0.405,0.875,0.137,-7.08,0.26,-8.28
2022-12-08 18:32:15.4710,0.423,0.961,-0.023,-6.66,0.51,-3.87
2022-12-08 18:32:15.4810,0.385,1.099,-0.053,-6.87,-0.33,-2.21
2022-12-08 18:32:15.4910,0.337,1.267,-0.051,-6.51,-1.66,-1.84
2022-12-08 18:32:15.5010,0.319,1.395,-0.035,-6.04,-3.28,-1.76
2022-12-08 18:32:15.5110,0.302,1.464,-0.029,-5.84,-4.51,-1.8
2022-12-08 18:32:15.5210,0.363,1.46,-0.054,-5.65,-5.14,-1.71
2022-12-08 18:32:15.5310,0.514,1.385,-0.127,-6.2,-5.06,-1.31
2022-12-08 18:32:15.5410,0.591,1.292,-0.171,-7.6,-4.27,-0.45
2022-12-08 18:32:15.5510,0.505,1.197,-0.113,-8.24,-3.31,0.11
2022-12-08 18:32:15.5620,0.452,1.103,-0.086,-7.23,-2.31,-0.34
2022-12-08 18:32:15.5720,0.492,1.024,-0.114,-6.53,-1.34,-0.49
2022-12-08 18:32:15.5820,0.629,0.959,-0.17,-6.72,-0.5,-0.12
2022-12-08 18:32:15.5920,0.715,0.91,-0.256,-7.82,0.19,0.51
2022-12-08 18:32:15.6030,0.562,0.907,-0.215,-8.39,0.72,1.42
2022-12-08 18:32:15.6120,0.424,0.918,-0.173,-6.63,0.79,1.09
2022-12-08 18:32:15.6220,0.352,0.911,-0.213,-5.02,0.71,0.73
2022-12-08 18:32:15.6320,0.272,0.927,-0.216,-4.1,0.81,1.17
2022-12-08 18:32:15.6420,0.23,0.943,-0.24,-3.12,0.66,1.26
2022-12-08 18:32:15.6520,0.183,0.947,-0.301,-2.53,0.52,1.55
2022-12-08 18:32:15.6620,0.116,0.97,-0.332,-1.92,0.48,2.17
2022-12-08 18:32:15.6720,0.05,0.996,-0.328,-1.11,0.26,2.47
2022-12-08 18:32:15.6820,-0.008,1.026,-0.31,-0.32,0.0,2.38
2022-12-08 18:32:15.6920,-0.07,1.057,-0.29,0.39,-0.31,2.1
2022-12-08 18:32:15.7020,-0.13,1.087,-0.243,1.14,-0.64,1.74
2022-12-08 18:32:15.7120,-0.172,1.112,-0.186,1.86,-0.96,1.06
2022-12-08 18:32:15.7220,-0.21,1.131,-0.127,2.41,-1.26,0.26
2022-12-08 18:32:15.7320,-0.266,1.114,0.002,2.92,-1.5,-0.58
2022-12-08 18:32:15.7420,-0.656,1.006,0.975,3.61,-1.4,-2.1
2022-12-08 18:32:15.7520,-0.989,0.829,1.503,7.5,-0.38,-11.8
2022-12-08 18:32:15.7620,-0.747,0.689,0.568,10.79,1.34,-17.07
2022-12-08 18:32:15.7720,-0.513,0.686,0.022,8.46,2.68,-7.99
2022-12-08 18:32:15.7820,-0.394,0.799,-0.172,6.28,2.67,-2.72
2022-12-08 18:32:15.7920,-0.367,0.894,-0.262,5.26,1.53,-0.85
2022-12-08 18:32:15.8020,-0.412,0.939,-0.244,5.17,0.58,0.06
2022-12-08 18:32:15.8120,-0.447,0.958,-0.221,5.79,0.13,-0.03
2022-12-08 18:32:15.8220,-0.471,0.981,-0.251,6.28,-0.06,-0.11
2022-12-08 18:32:15.8320,-0.487,1.022,-0.33,6.63,-0.26,0.38
2022-12-08 18:32:15.8420,-0.479,1.046,-0.437,6.86,-0.63,1.37
2022-12-08 18:32:15.8520,-0.446,1.024,-0.544,6.82,-0.83,2.63
2022-12-08 18:32:15.8620,-0.431,1.014,-0.61,6.5,-0.59,3.86
2022-12-08 18:32:15.8720,-0.451,1.057,-0.596,6.34,-0.47,4.64
2022-12-08 18:32:15.8820,-0.486,1.103,-0.511,6.5,-0.87,4.56
2022-12-08 18:32:15.8920,-0.504,1.074,-0.394,6.78,-1.31,3.73
2022-12-08 18:32:15.9030,-0.492,1.014,-0.261,6.86,-1.02,2.54
2022-12-08 18:32:15.9120,-0.495,0.992,-0.14,6.61,-0.41,1.16
2022-12-08 18:32:15.9230,-0.565,1.009,0.157,6.49,-0.17,-0.09
2022-12-08 18:32:15.9320,-1.111,1.181,2.411,6.97,-0.31,-2.99
2022-12-08 18:32:15.9420,-0.958,1.246,0.956,12.1,-1.93,-24.84
2022-12-08 18:32:15.9530,-0.604,1.211,-0.376,10.34,-2.51,-10.33
2022-12-08 18:32:15.9630,-0.643,1.296,-0.167,6.58,-2.13,2.85
2022-12-08 18:32:15.9730,-0.59,1.351,-0.134,6.64,-2.94,0.84
2022-12-08 18:32:15.9830,-0.49,1.417,-0.138,5.76,-3.47,0.56
2022-12-08 18:32:15.9930,-0.413,1.527,-0.171,4.38,-4.13,0.64
2022-12-08 18:32:16.0040,-0.334,1.657,-0.223,3.22,-5.23,1.03
2022-12-08 18:32:16.0130,-0.245,1.795,-0.281,2.02,-6.55,1.6
2022-12-08 18:32:16.0230,-0.126,1.902,-0.356,0.74,-7.96,2.26
2022-12-08 18:32:16.0330,0.019,1.955,-0.404,-0.82,-9.08,3.1
2022-12-08 18:32:16.0430,0.155,1.945,-0.413,-2.59,-9.67,3.66
2022-12-08 18:32:16.0540,0.243,1.863,-0.371,-4.21,-9.66,3.8
2022-12-08 18:32:16.0630,0.27,1.741,-0.291,-5.32,-8.92,3.39
2022-12-08 18:32:16.0730,0.262,1.588,-0.217,-5.79,-7.79,2.56
2022-12-08 18:32:16.0830,0.26,1.431,-0.147,-5.88,-6.35,1.76
2022-12-08 18:32:16.0930,0.272,1.282,-0.089,-6.01,-4.87,0.97
2022-12-08 18:32:16.1030,0.261,1.133,-0.058,-6.26,-3.47,0.3
2022-12-08 18:32:16.1130,0.241,0.954,-0.083,-6.29,-2.08,-0.14
2022-12-08 18:32:16.1230,0.256,0.845,-0.055,-6.25,-0.4,-0.07
2022-12-08 18:32:16.1330,0.312,0.838,0.025,-6.57,0.58,-0.54
2022-12-08 18:32:16.1430,0.385,0.814,0.242,-7.28,0.55,-1.49
2022-12-08 18:32:16.1530,0.433,0.771,0.381,-8.16,0.69,-3.71
2022-12-08 18:32:16.1630,0.478,0.747,0.278,-8.79,1.03,-5.07
2022-12-08 18:32:16.1730,0.503,0.721,0.063,-9.36,1.2,-3.97
2022-12-08 18:32:16.1830,0.507,0.684,-0.134,-9.7,1.42,-1.74
2022-12-08 18:32:16.1930,0.514,0.627,-0.261,-9.81,1.77,0.28
2022-12-08 18:32:16.2030,0.51,0.566,-0.286,-9.9,2.31,1.53
2022-12-08 18:32:16.2130,0.496,0.514,-0.187,-9.84,2.91,1.7
2022-12-08 18:32:16.2230,0.5,0.482,0.024,-9.66,3.43,0.6
2022-12-08 18:32:16.2330,0.518,0.481,0.218,-9.63,3.76,-1.62
2022-12-08 18:32:16.2430,0.496,0.497,0.249,-9.71,3.8,-3.63
2022-12-08 18:32:16.2530,0.449,0.521,0.218,-9.39,3.68,-4.03
2022-12-08 18:32:16.2630,0.411,0.545,0.264,-8.81,3.49,-3.8
2022-12-08 18:32:16.2730,0.362,0.579,0.292,-8.32,3.31,-4.29
2022-12-08 18:32:16.2830,0.263,0.662,0.241,-7.71,3.03,-4.6
2022-12-08 18:32:16.2930,0.163,0.813,0.376,-6.6,2.27,-4.13
2022-12-08 18:32:16.3030,-0.044,0.997,0.605,-5.47,0.85,-5.52
2022-12-08 18:32:16.3130,-0.3,1.109,0.114,-3.26,-0.9,-7.86
2022-12-08 18:32:16.3230,-0.413,1.201,-0.697,-0.59,-1.95,-3.12
2022-12-08 18:32:16.3330,-0.702,1.415,-0.896,0.62,-2.82,4.83
2022-12-08 18:32:16.3430,-1.114,1.699,-0.84,3.49,-4.88,6.88
2022-12-08 18:32:16.3530,-1.502,1.861,-0.803,7.51,-7.63,6.54
2022-12-08 18:32:16.3630,-1.919,1.612,-0.868,11.37,-9.15,6.45
2022-12-08 18:32:16.3730,-2.299,1.212,-0.787,15.64,-6.62,7.31
2022-12-08 18:32:16.3830,-2.328,0.892,-0.558,19.62,-2.6,6.56
2022-12-08 18:32:16.3940,-1.965,0.616,-0.291,20.18,0.6,4.17
2022-12-08 18:32:16.4040,-1.646,0.548,-0.093,16.88,3.34,1.28
2022-12-08 18:32:16.4140,-1.514,0.799,0.063,13.98,4.0,-0.98
2022-12-08 18:32:16.4240,-1.071,1.037,0.273,12.82,1.5,-2.81
2022-12-08 18:32:16.4340,-0.37,1.107,0.679,8.56,-0.87,-5.08
2022-12-08 18:32:16.4440,-0.343,1.141,0.708,1.75,-1.56,-9.15
2022-12-08 18:32:16.4540,-0.556,1.242,0.491,1.52,-1.88,-9.39
2022-12-08 18:32:16.4640,-0.579,1.295,0.24,3.58,-2.84,-7.11
2022-12-08 18:32:16.4740,-0.5,1.29,-0.087,3.72,-3.32,-4.41
2022-12-08 18:32:16.4840,-0.326,1.279,-0.52,2.82,-3.25,-0.97
2022-12-08 18:32:16.4940,-0.129,1.199,-0.438,0.97,-3.17,3.28
2022-12-08 18:32:16.5040,0.193,1.075,0.282,-1.13,-2.47,2.27
2022-12-08 18:32:16.5140,0.595,1.001,1.006,-4.44,-1.34,-5.01
2022-12-08 18:32:16.5240,0.669,0.924,0.788,-8.5,-0.68,-12.21
2022-12-08 18:32:16.5340,0.579,0.932,0.241,-9.29,0.06,-10.05
2022-12-08 18:32:16.5440,0.465,1.039,0.011,-8.43,0.0,-4.63
2022-12-08 18:32:16.5540,0.365,1.179,-0.061,-7.29,-1.03,-2.3
2022-12-08 18:32:16.5640,0.344,1.321,-0.035,-6.25,-2.36,-1.52
2022-12-08 18:32:16.5740,0.354,1.402,-0.009,-5.96,-3.72,-1.69
2022-12-08 18:32:16.5840,0.368,1.389,-0.026,-5.97,-4.47,-1.84
2022-12-08 18:32:16.5940,0.478,1.265,-0.053,-6.02,-4.3,-1.56
2022-12-08 18:32:16.6040,0.622,1.119,-0.097,-6.98,-3.03,-1.19
2022-12-08 18:32:16.6140,0.591,1.029,-0.097,-8.25,-1.54,-0.65
2022-12-08 18:32:16.6240,0.557,0.967,-0.073,-7.79,-0.61,-0.55
2022-12-08 18:32:16.6340,0.563,0.916,-0.066,-7.26,0.05,-0.69
2022-12-08 18:32:16.6440,0.556,0.891,-0.065,-7.11,0.6,-0.67
2022-12-08 18:32:16.6540,0.533,0.887,-0.074,-6.83,0.89,-0.57
2022-12-08 18:32:16.6640,0.501,0.898,-0.106,-6.37,0.98,-0.38
2022-12-08 18:32:16.6740,0.454,0.911,-0.172,-5.83,0.91,0.06
2022-12-08 18:32:16.6840,0.383,0.936,-0.25,-5.16,0.81,0.84
2022-12-08 18:32:16.6940,0.278,0.976,-0.27,-4.28,0.59,1.72
2022-12-08 18:32:16.7040,0.202,1.007,-0.303,-3.08,0.2,2.03
2022-12-08 18:32:16.7140,0.128,1.016,-0.345,-2.19,-0.09,2.43
2022-12-08 18:32:16.7240,0.047,1.026,-0.382,-1.31,-0.17,2.9
2022-12-08 18:32:16.7340,-0.013,1.032,-0.407,-0.39,-0.27,3.28
2022-12-08 18:32:16.7440,-0.062,1.036,-0.401,0.33,-0.34,3.49
2022-12-08 18:32:16.7540,-0.11,1.055,-0.369,0.93,-0.38,3.35
2022-12-08 18:32:16.7640,-0.154,1.087,-0.329,1.52,-0.58,2.91
2022-12-08 18:32:16.7740,-0.204,1.101,-0.287,2.07,-0.91,2.35
2022-12-08 18:32:16.7840,-0.226,1.101,-0.235,2.69,-1.07,1.75
2022-12-08 18:32:16.7950,-0.237,1.099,-0.169,3.05,-1.12,1.01
2022-12-08 18:32:16.8060,-0.274,1.083,-0.126,3.34,-1.16,0.1
2022-12-08 18:32:16.8150,-0.38,1.026,0.19,3.91,-1.07,-0.6
2022-12-08 18:32:16.8250,-0.748,0.853,1.937,5.13,-0.59,-3.96
2022-12-08 18:32:16.8350,-0.69,0.712,1.3,8.85,1.08,-21.17
2022-12-08 18:32:16.8450,-0.457,0.721,-0.089,8.37,2.44,-14.93
2022-12-08 18:32:16.8550,-0.377,0.875,-0.263,6.19,2.33,-1.32
2022-12-08 18:32:16.8650,-0.364,1.021,-0.257,5.52,0.79,0.38
2022-12-08 18:32:16.8750,-0.377,1.09,-0.214,5.51,-0.65,0.35
2022-12-08 18:32:16.8850,-0.39,1.089,-0.199,5.76,-1.34,0.02
2022-12-08 18:32:16.8950,-0.39,1.046,-0.223,5.98,-1.32,-0.01
2022-12-08 18:32:16.9050,-0.395,1.0,-0.284,6.06,-0.88,0.39
2022-12-08 18:32:16.9150,-0.409,0.976,-0.371,6.15,-0.41,1.17
2022-12-08 18:32:16.9250,-0.431,0.976,-0.456,6.32,-0.15,2.2
2022-12-08 18:32:16.9350,-0.477,1.011,-0.518,6.54,-0.13,3.2
2022-12-08 18:32:16.9450,-0.542,1.057,-0.525,6.99,-0.46,3.92
2022-12-08 18:32:16.9550,-0.596,1.07,-0.474,7.59,-0.9,4.08
2022-12-08 18:32:16.9650,-0.625,1.032,-0.397,8.06,-1.0,3.61
2022-12-08 18:32:16.9750,-0.631,0.986,-0.306,8.26,-0.61,2.84
2022-12-08 18:32:16.9850,-0.631,0.963,-0.23,8.19,-0.14,1.91
2022-12-08 18:32:16.9950,-0.639,0.972,-0.157,8.04,0.11,1.09
2022-12-08 18:32:17.0050,-0.957,1.062,0.98,7.94,0.04,0.29
2022-12-08 18:32:17.0150,-1.177,1.264,1.315,10.86,-0.8,-10.78
2022-12-08 18:32:17.0250,-0.806,1.335,-0.067,12.77,-2.73,-13.89
2022-12-08 18:32:17.0350,-0.661,1.334,-0.107,8.84,-3.37,-0.23
2022-12-08 18:32:17.0450,-0.534,1.348,-0.08,7.07,-3.33,0.22
2022-12-08 18:32:17.0550,-0.43,1.427,-0.084,5.44,-3.45,0.0
2022-12-08 18:32:17.0650,-0.355,1.569,-0.113,3.99,-4.23,0.08
2022-12-08 18:32:17.0750,-0.283,1.737,-0.176,2.8,-5.64,0.43
2022-12-08 18:32:17.0850,-0.213,1.894,-0.268,1.64,-7.32,1.14
2022-12-08 18:32:17.0950,-0.111,2.006,-0.371,0.49,-8.92,2.15
2022-12-08 18:32:17.1050,0.064,2.064,-0.406,-0.93,-10.09,3.28
2022-12-08 18:32:17.1160,0.258,2.063,-0.414,-3.04,-10.75,3.71
2022-12-08 18:32:17.1250,0.356,1.948,-0.386,-5.27,-10.82,3.82
2022-12-08 18:32:17.1350,0.359,1.774,-0.312,-6.49,-9.78,3.53
2022-12-08 18:32:17.1450,0.393,1.593,-0.233,-6.75,-8.15,2.73
2022-12-08 18:32:17.1550,0.378,1.395,-0.147,-7.26,-6.44,1.85
2022-12-08 18:32:17.1650,0.332,1.207,-0.095,-7.25,-4.56,0.87
2022-12-08 18:32:17.1750,0.328,1.001,-0.122,-6.94,-2.78,0.21
2022-12-08 18:32:17.1850,0.378,0.871,-0.029,-7.04,-0.84,0.27
2022-12-08 18:32:17.1960,0.452,0.82,0.308,-7.69,0.35,-0.87
2022-12-08 18:32:17.2060,0.511,0.789,0.47,-8.58,0.75,-4.31
2022-12-08 18:32:17.2150,0.55,0.774,0.366,-9.33,0.97,-5.94
2022-12-08 18:32:17.2250,0.579,0.756,0.173,-9.86,1.05,-4.87
2022-12-08 18:32:17.2360,0.581,0.735,-0.016,-10.27,1.17,-2.87
2022-12-08 18:32:17.2460,0.577,0.696,-0.154,-10.39,1.34,-0.91
2022-12-08 18:32:17.2560,0.568,0.639,-0.247,-10.42,1.69,0.52
2022-12-08 18:32:17.2660,0.543,0.586,-0.282,-10.36,2.24,1.44
2022-12-08 18:32:17.2760,0.479,0.542,-0.218,-10.11,2.75,1.72
2022-12-08 18:32:17.2860,0.406,0.509,-0.023,-9.44,3.19,0.97
2022-12-08 18:32:17.2960,0.377,0.492,0.207,-8.68,3.53,-1.07
2022-12-08 18:32:17.3060,0.378,0.518,0.268,-8.32,3.71,-3.44
2022-12-08 18:32:17.3160,0.368,0.571,0.203,-8.24,3.49,-4.12
2022-12-08 18:32:17.3260,0.346,0.611,0.177,-8.06,3.0,-3.55
2022-12-08 18:32:17.3360,0.311,0.648,0.222,-7.74,2.65,-3.35
2022-12-08 18:32:17.3460,0.249,0.718,0.265,-7.29,2.33,-3.84
2022-12-08 18:32:17.3560,0.172,0.805,0.436,-6.56,1.69,-4.31
2022-12-08 18:32:17.3660,-0.006,0.898,0.536,-5.65,0.89,-6.05
2022-12-08 18:32:17.3760,-0.285,0.947,0.212,-3.75,0.05,-7.09
2022-12-08 18:32:17.3860,-0.461,1.01,-0.392,-0.86,-0.38,-3.94
2022-12-08 18:32:17.3960,-0.609,1.135,-0.798,0.95,-0.96,2.0
2022-12-08 18:32:17.4060,-0.881,1.367,-0.821,2.44,-2.16,6.04
2022-12-08 18:32:17.4160,-1.239,1.635,-0.74,5.07,-4.43,6.4
2022-12-08 18:32:17.4260,-1.584,1.674,-0.61,8.56,-7.03,5.81
2022-12-08 18:32:17.4360,-1.837,1.391,-0.546,12.05,-7.35,4.7
2022-12-08 18:32:17.4460,-2.067,1.05,-0.479,14.79,-4.48,4.07
2022-12-08 18:32:17.4560,-2.012,0.841,-0.308,17.38,-1.04,3.26
2022-12-08 18:32:17.4670,-1.871,0.834,-0.137,17.16,1.06,1.37
2022-12-08 18:32:17.4760,-1.743,0.972,-0.04,16.03,1.16,-0.53
2022-12-08 18:32:17.4860,-1.497,1.081,0.029,14.9,-0.2,-1.65
2022-12-08 18:32:17.4960,-1.114,1.137,0.247,12.49,-1.3,-2.45
2022-12-08 18:32:17.5060,-0.824,1.309,0.65,8.65,-1.87,-4.62
2022-12-08 18:32:17.5160,-0.673,1.353,0.623,5.67,-3.56,-8.49
2022-12-08 18:32:17.5260,-0.52,1.196,0.144,4.06,-3.99,-8.02
2022-12-08 18:32:17.5360,-0.329,1.096,-0.259,2.42,-2.45,-3.08
2022-12-08 18:32:17.5460,-0.139,0.977,-0.538,0.41,-1.48,1.0
2022-12-08 18:32:17.5560,0.073,0.857,-0.217,-1.58,-0.38,3.62
2022-12-08 18:32:17.5660,0.307,0.851,0.212,-3.78,0.71,0.25
2022-12-08 18:32:17.5760,0.516,0.876,0.446,-6.18,0.7,-4.16
2022-12-08 18:32:17.5860,0.648,0.963,0.35,-8.29,0.4,-6.58
2022-12-08 18:32:17.5970,0.618,1.099,0.226,-9.59,-0.47,-5.69
2022-12-08 18:32:17.6070,0.511,1.251,0.129,-9.25,-1.79,-4.48
2022-12-08 18:32:17.6160,0.456,1.382,0.062,-8.12,-3.25,-3.51
2022-12-08 18:32:17.6260,0.473,1.455,0.03,-7.47,-4.48,-2.8
2022-12-08 18:32:17.6370,0.545,1.448,-0.004,-7.51,-5.14,-2.41
2022-12-08 18:32:17.6460,0.71,1.336,-0.012,-8.1,-5.02,-1.98
2022-12-08 18:32:17.6570,0.793,1.204,-0.022,-9.57,-3.85,-1.83
2022-12-08 18:32:17.6670,0.741,1.127,0.007,-10.21,-2.49,-1.66
2022-12-08 18:32:17.6770,0.663,1.039,0.034,-9.5,-1.68,-1.89
2022-12-08 18:32:17.6870,0.584,0.973,0.056,-8.53,-0.76,-2.12
2022-12-08 18:32:17.6970,0.554,0.922,0.076,-7.54,-0.06,-2.27
2022-12-08 18:32:17.7070,0.561,0.903,0.057,-7.01,0.49,-2.39
2022-12-08 18:32:17.7170,0.578,0.912,-0.01,-6.85,0.74,-2.08
2022-12-08 18:32:17.7270,0.538,0.937,-0.107,-6.79,0.7,-1.27
2022-12-08 18:32:17.7370,0.397,0.991,-0.177,-6.19,0.5,-0.13
2022-12-08 18:32:17.7470,0.322,1.032,-0.243,-4.62,0.0,0.74
2022-12-08 18:32:17.7570,0.281,1.055,-0.316,-3.7,-0.37,1.54
2022-12-08 18:32:17.7670,0.222,1.065,-0.401,-3.15,-0.57,2.39
2022-12-08 18:32:17.7770,0.132,1.064,-0.471,-2.41,-0.66,3.31
2022-12-08 18:32:17.7870,0.053,1.066,-0.486,-1.39,-0.66,4.02
2022-12-08 18:32:17.7970,0.002,1.061,-0.477,-0.48,-0.68,4.14
2022-12-08 18:32:17.8070,-0.036,1.049,-0.454,0.16,-0.63,3.97
2022-12-08 18:32:17.8170,-0.083,1.051,-0.416,0.66,-0.53,3.62
2022-12-08 18:32:17.8270,-0.149,1.048,-0.37,1.24,-0.57,3.08
2022-12-08 18:32:17.8370,-0.223,1.039,-0.307,2.01,-0.57,2.45
2022-12-08 18:32:17.8470,-0.28,1.039,-0.227,2.87,-0.51,1.63
2022-12-08 18:32:17.8570,-0.301,1.056,-0.154,3.58,-0.55,0.65
2022-12-08 18:32:17.8670,-0.329,1.078,-0.11,3.96,-0.77,-0.27
2022-12-08 18:32:17.8770,-0.622,1.076,0.522,4.45,-1.05,-0.92
2022-12-08 18:32:17.8870,-1.333,0.97,2.187,7.52,-1.1,-7.28
2022-12-08 18:32:17.8970,-0.97,0.748,0.825,14.63,-0.08,-23.61
2022-12-08 18:32:17.9070,-0.5,0.688,-0.246,11.18,2.08,-10.22
2022-12-08 18:32:17.9170,-0.455,0.837,-0.328,6.71,2.66,0.31
2022-12-08 18:32:17.9270,-0.443,0.978,-0.269,6.39,1.18,1.16
2022-12-08 18:32:17.9370,-0.454,1.044,-0.225,6.4,-0.21,0.67
2022-12-08 18:32:17.9470,-0.46,1.029,-0.264,6.6,-0.85,0.36
2022-12-08 18:32:17.9570,-0.422,0.974,-0.329,6.72,-0.69,0.9
2022-12-08 18:32:17.9670,-0.384,0.95,-0.382,6.37,-0.14,1.68
2022-12-08 18:32:17.9770,-0.383,0.975,-0.433,6.01,0.12,2.35
2022-12-08 18:32:17.9870,-0.412,1.019,-0.475,6.01,-0.11,2.95
2022-12-08 18:32:17.9970,-0.449,1.064,-0.474,6.27,-0.53,3.42
2022-12-08 18:32:18.0070,-0.481,1.128,-0.423,6.61,-0.97,3.42
2022-12-08 18:32:18.0170,-0.492,1.173,-0.341,6.86,-1.59,2.89
2022-12-08 18:32:18.0270,-0.481,1.146,-0.259,6.89,-2.01,2.05
2022-12-08 18:32:18.0370,-0.466,1.064,-0.182,6.68,-1.73,1.21
2022-12-08 18:32:18.0470,-0.493,0.995,-0.035,6.39,-0.9,0.42
2022-12-08 18:32:18.0570,-0.857,1.024,1.308,6.5,-0.2,-1.02
2022-12-08 18:32:18.0680,-0.989,1.09,1.496,9.87,-0.42,-13.98
2022-12-08 18:32:18.0770,-0.591,1.04,-0.155,10.94,-1.01,-15.54
2022-12-08 18:32:18.0870,-0.576,1.154,-0.254,6.79,-0.48,0.83
2022-12-08 18:32:18.0980,-0.608,1.301,-0.161,6.37,-1.56,1.89
2022-12-08 18:32:18.1080,-0.55,1.383,-0.129,6.37,-2.98,1.02
2022-12-08 18:32:18.1180,-0.468,1.458,-0.144,5.45,-3.78,0.76
2022-12-08 18:32:18.1280,-0.381,1.56,-0.207,4.25,-4.52,0.96
2022-12-08 18:32:18.1380,-0.291,1.676,-0.277,3.0,-5.54,1.65
2022-12-08 18:32:18.1480,-0.209,1.802,-0.344,1.7,-6.71,2.42
2022-12-08 18:32:18.1580,-0.122,1.906,-0.428,0.48,-8.0,3.17
2022-12-08 18:32:18.1680,0.036,1.959,-0.486,-0.75,-9.09,4.08
2022-12-08 18:32:18.1780,0.188,1.941,-0.512,-2.66,-9.68,4.73
2022-12-08 18:32:18.1880,0.275,1.855,-0.528,-4.45,-9.59,5.03
2022-12-08 18:32:18.1980,0.299,1.716,-0.52,-5.56,-8.82,5.16
2022-12-08 18:32:18.2080,0.292,1.545,-0.455,-6.02,-7.53,5.0
2022-12-08 18:32:18.2180,0.293,1.381,-0.375,-6.13,-5.91,4.24
2022-12-08 18:32:18.2280,0.302,1.239,-0.297,-6.3,-4.37,3.32
2022-12-08 18:32:18.2380,0.311,1.118,-0.229,-6.51,-3.03,2.41
2022-12-08 18:32:18.2480,0.315,1.009,-0.182,-6.71,-1.89,1.6
2022-12-08 18:32:18.2580,0.323,0.898,-0.16,-6.86,-0.88,1.0
2022-12-08 18:32:18.2680,0.333,0.796,-0.12,-7.04,0.15,0.64
2022-12-08 18:32:18.2780,0.355,0.764,-0.043,-7.26,1.09,0.11
2022-12-08 18:32:18.2880,0.367,0.761,0.026,-7.58,1.34,-0.78
2022-12-08 18:32:18.2980,0.375,0.739,0.132,-7.82,1.29,-1.57
2022-12-08 18:32:18.3080,0.326,0.7,0.386,-8.02,1.43,-2.68
2022-12-08 18:32:18.3180,0.322,0.664,0.382,-7.66,1.76,-5.14
2022-12-08 18:32:18.3280,0.378,0.656,0.186,-7.75,2.06,-5.01
2022-12-08 18:32:18.3380,0.408,0.655,0.023,-8.38,2.11,-2.98
2022-12-08 18:32:18.3480,0.414,0.637,-0.088,-8.72,2.1,-1.32
2022-12-08 18:32:18.3580,0.419,0.612,-0.01,-8.79,2.27,-0.27
2022-12-08 18:32:18.3680,0.452,0.619,0.233,-8.81,2.51,-1.15
2022-12-08 18:32:18.3780,0.489,0.623,0.393,-9.08,2.46,-3.66
2022-12-08 18:32:18.3880,0.471,0.619,0.354,-9.37,2.43,-5.33
2022-12-08 18:32:18.3980,0.412,0.616,0.277,-9.11,2.51,-5.03
2022-12-08 18:32:18.4080,0.337,0.629,0.239,-8.43,2.59,-4.31
2022-12-08 18:32:18.4180,0.254,0.684,0.136,-7.58,2.51,-3.97
2022-12-08 18:32:18.4280,0.187,0.775,-0.041,-6.66,2.02,-2.99
2022-12-08 18:32:18.4380,0.147,0.879,-0.173,-5.87,1.17,-1.32
2022-12-08 18:32:18.4480,0.02,0.984,-0.125,-5.31,0.2,-0.13
2022-12-08 18:32:18.4580,-0.184,1.065,-0.123,-3.88,-0.78,-0.74
2022-12-08 18:32:18.4690,-0.335,1.113,-0.416,-1.71,-1.53,-0.89
2022-12-08 18:32:18.4780,-0.514,1.214,-0.591,-0.1,-1.97,1.92
2022-12-08 18:32:18.4880,-0.72,1.342,-0.563,1.72,-2.94,3.63
2022-12-08 18:32:18.4990,-0.978,1.442,-0.568,3.74,-4.17,3.43
2022-12-08 18:32:18.5090,-1.252,1.44,-0.628,6.26,-5.13,3.65
2022-12-08 18:32:18.5190,-1.395,1.211,-0.607,8.98,-5.05,4.42
2022-12-08 18:32:18.5290,-1.618,0.966,-0.562,10.52,-2.73,4.37
2022-12-08 18:32:18.5390,-1.818,0.824,-0.453,12.94,-0.25,3.99
2022-12-08 18:32:18.5490,-1.798,0.767,-0.316,15.16,1.22,2.85
2022-12-08 18:32:18.5590,-1.672,0.891,-0.155,15.2,1.81,1.33
2022-12-08 18:32:18.5690,-1.586,1.128,-0.009,14.18,0.6,-0.47
2022-12-08 18:32:18.5790,-1.373,1.23,0.102,13.45,-1.74,-2.11
2022-12-08 18:32:18.5890,-0.995,1.174,0.293,11.4,-2.77,-3.35
2022-12-08 18:32:18.5990,-0.714,1.131,0.588,7.67,-2.25,-5.29
2022-12-08 18:32:18.6090,-0.555,1.107,0.66,4.88,-1.82,-8.14
2022-12-08 18:32:18.6190,-0.408,1.01,0.438,3.31,-1.55,-8.7
2022-12-08 18:32:18.6290,-0.398,0.965,0.111,1.83,-0.56,-6.31
2022-12-08 18:32:18.6390,-0.367,0.985,-0.335,1.69,-0.08,-2.87
2022-12-08 18:32:18.6490,-0.18,1.003,-0.51,1.3,-0.28,1.62
2022-12-08 18:32:18.6590,0.022,1.022,-0.283,-0.66,-0.51,3.23
2022-12-08 18:32:18.6690,0.17,1.075,-0.042,-2.77,-0.77,0.77
2022-12-08 18:32:18.6790,0.416,1.133,0.358,-4.34,-1.38,-1.87
2022-12-08 18:32:18.6890,0.725,1.198,0.866,-6.83,-2.04,-6.0
2022-12-08 18:32:18.6990,0.679,1.244,0.652,-9.9,-2.7,-11.04
2022-12-08 18:32:18.7090,0.5,1.294,0.235,-9.45,-3.14,-8.9
2022-12-08 18:32:18.7190,0.419,1.344,0.025,-7.66,-3.6,-4.71
2022-12-08 18:32:18.7290,0.426,1.361,-0.041,-6.82,-4.04,-2.54
2022-12-08 18:32:18.7390,0.488,1.325,-0.062,-6.82,-4.16,-1.77
2022-12-08 18:32:18.7490,0.626,1.215,-0.12,-7.34,-3.76,-1.45
2022-12-08 18:32:18.7590,0.696,1.088,-0.14,-8.58,-2.62,-0.78
2022-12-08 18:32:18.7690,0.631,1.014,-0.09,-9.11,-1.32,-0.5
2022-12-08 18:32:18.7790,0.51,1.01,-0.05,-8.28,-0.54,-0.92
2022-12-08 18:32:18.7890,0.457,0.986,-0.046,-6.9,-0.44,-1.26
2022-12-08 18:32:18.7990,0.469,0.947,-0.076,-6.17,-0.16,-1.22
2022-12-08 18:32:18.8090,0.511,0.911,-0.126,-6.09,0.27,-0.85
2022-12-08 18:32:18.8190,0.527,0.899,-0.169,-6.3,0.67,-0.28
2022-12-08 18:32:18.8290,0.443,0.916,-0.188,-5.25,0.69,0.55
2022-12-08 18:32:18.8410,0.353,0.931,-0.2,-5.25,0.69,0.55
2022-12-08 18:32:18.8490,0.336,0.929,-0.27,-4.21,0.57,0.78
2022-12-08 18:32:18.8600,0.286,0.952,-0.322,-3.88,0.62,1.58
2022-12-08 18:32:18.8700,0.203,0.98,-0.35,-3.24,0.41,2.19
2022-12-08 18:32:18.8800,0.121,1.0,-0.386,-2.28,0.15,2.54
2022-12-08 18:32:18.8900,0.05,1.025,-0.409,-1.33,-0.04,2.94
2022-12-08 18:32:18.9000,-0.022,1.045,-0.412,0.36,-0.48,3.16
2022-12-08 18:32:18.9110,-0.088,1.083,-0.401,0.36,-0.48,3.16
2022-12-08 18:32:18.9190,-0.16,1.126,-0.374,1.15,-0.87,2.98
2022-12-08 18:32:18.9290,-0.229,1.158,-0.331,1.99,-1.31,2.59
2022-12-08 18:32:18.9390,-0.289,1.172,-0.271,2.78,-1.65,2.02
2022-12-08 18:32:18.9490,-0.32,1.18,-0.199,3.49,-1.81,1.25
2022-12-08 18:32:18.9590,-0.322,1.175,-0.143,3.93,-1.94,0.35
2022-12-08 18:32:18.9700,-0.348,1.136,-0.073,4.12,-1.94,-0.43
2022-12-08 18:32:18.9800,-0.739,1.012,1.318,4.55,-1.63,-1.37
2022-12-08 18:32:18.9900,-0.974,0.79,2.028,8.53,-0.46,-15.14
2022-12-08 18:32:19.0000,-0.522,0.697,0.194,10.95,1.7,-22.11
2022-12-08 18:32:19.0100,-0.337,0.779,-0.323,6.62,2.6,-4.12
2022-12-08 18:32:19.0200,-0.321,0.907,-0.346,4.95,1.77,0.96
2022-12-08 18:32:19.0300,-0.342,0.997,-0.275,4.96,0.49,1.22
2022-12-08 18:32:19.0400,-0.372,1.04,-0.213,5.32,-0.4,0.62
2022-12-08 18:32:19.0500,-0.381,1.025,-0.228,5.75,-0.82,0.14
2022-12-08 18:32:19.0600,-0.368,0.986,-0.293,5.94,-0.67,0.45
2022-12-08 18:32:19.0700,-0.342,0.96,-0.382,5.87,-0.27,1.27
2022-12-08 18:32:19.0800,-0.32,0.95,-0.477,5.65,0.01,2.31
2022-12-08 18:32:19.0900,-0.326,0.951,-0.563,5.46,0.12,3.38
2022-12-08 18:32:19.1000,-0.375,0.992,-0.608,5.53,0.12,4.3
2022-12-08 18:32:19.1100,-0.446,1.061,-0.578,6.0,-0.28,4.77
2022-12-08 18:32:19.1200,-0.493,1.107,-0.494,6.68,-0.96,4.47
2022-12-08 18:32:19.1300,-0.506,1.091,-0.392,7.08,-1.4,3.62
2022-12-08 18:32:19.1400,-0.514,1.042,-0.302,7.12,-1.23,2.57
2022-12-08 18:32:19.1500,-0.537,1.014,-0.231,7.08,-0.73,1.63
2022-12-08 18:32:19.1600,-0.576,1.012,-0.109,7.16,-0.43,0.87
2022-12-08 18:32:19.1700,-0.969,1.102,1.578,7.37,-0.38,-0.39
2022-12-08 18:32:19.1800,-0.995,1.212,1.504,11.01,-1.21,-16.79
2022-12-08 18:32:19.1900,-0.626,1.165,-0.181,11.03,-2.23,-15.88
2022-12-08 18:32:19.2000,-0.536,1.22,-0.192,7.13,-1.73,0.76
2022-12-08 18:32:19.2110,-0.459,1.274,-0.145,5.92,-2.23,0.94
2022-12-08 18:32:19.2200,-0.379,1.332,-0.135,4.81,-2.74,0.51
2022-12-08 18:32:19.2300,-0.315,1.425,-0.162,3.65,-3.3,0.46
2022-12-08 18:32:19.2400,-0.244,1.554,-0.209,2.62,-4.22,0.78
2022-12-08 18:32:19.2500,-0.18,1.705,-0.258,1.52,-5.51,1.31
2022-12-08 18:32:19.2600,-0.129,1.843,-0.329,0.48,-7.02,1.87
2022-12-08 18:32:19.2700,-0.02,1.938,-0.392,-0.4,-8.43,2.66
2022-12-08 18:32:19.2810,0.132,1.98,-0.405,-1.82,-9.42,3.37
2022-12-08 18:32:19.2900,0.237,1.929,-0.386,-3.63,-9.91,3.56
2022-12-08 18:32:19.3000,0.322,1.798,-0.321,-4.93,-9.48,3.39
2022-12-08 18:32:19.3110,0.342,1.625,-0.224,-5.99,-8.25,2.73
2022-12-08 18:32:19.3200,0.314,1.449,-0.137,-6.37,-6.62,1.72
2022-12-08 18:32:19.3300,0.293,1.294,-0.074,-6.25,-4.95,0.79
2022-12-08 18:32:19.3410,0.278,1.142,-0.052,-6.19,-3.49,0.08
2022-12-08 18:32:19.3500,0.249,0.964,-0.066,-6.18,-2.05,-0.26
2022-12-08 18:32:19.3610,0.253,0.891,-0.004,-6.05,-0.39,-0.3
2022-12-08 18:32:19.3700,0.298,0.903,0.088,-6.26,0.24,-1.09
2022-12-08 18:32:19.3810,0.353,0.906,0.175,-6.87,0.03,-2.16
2022-12-08 18:32:19.3910,0.385,0.882,0.215,-7.58,-0.1,-3.12
2022-12-08 18:32:19.4010,0.399,0.83,0.208,-8.06,0.06,-3.55
2022-12-08 18:32:19.4110,0.402,0.77,0.147,-8.33,0.5,-3.46
2022-12-08 18:32:19.4210,0.394,0.704,0.048,-8.48,1.04,-2.78
2022-12-08 18:32:19.4310,0.383,0.631,-0.068,-8.5,1.65,-1.73
2022-12-08 18:32:19.4410,0.374,0.564,-0.124,-8.45,2.33,-0.55
2022-12-08 18:32:19.4510,0.359,0.517,-0.068,-8.39,2.97,-0.02
2022-12-08 18:32:19.4610,0.36,0.492,0.079,-8.25,3.42,-0.65
2022-12-08 18:32:19.4710,0.401,0.505,0.216,-8.24,3.66,-2.18
2022-12-08 18:32:19.4810,0.447,0.542,0.243,-8.6,3.55,-3.6
2022-12-08 18:32:19.4910,0.451,0.58,0.17,-8.99,3.2,-3.93
2022-12-08 18:32:19.5010,0.434,0.605,0.061,-8.97,2.86,-3.27
2022-12-08 18:32:19.5110,0.401,0.631,0.009,-8.7,2.65,-2.25
2022-12-08 18:32:19.5210,0.353,0.658,0.02,-8.27,2.44,-1.8
2022-12-08 18:32:19.5310,0.285,0.706,0.021,-7.66,2.23,-1.97
2022-12-08 18:32:19.5410,0.217,0.785,0.082,-6.86,1.81,-2.06
2022-12-08 18:32:19.5510,0.095,0.885,0.276,-6.02,1.09,-2.76
2022-12-08 18:32:19.5610,-0.198,0.929,0.201,-4.63,0.17,-4.77
2022-12-08 18:32:19.5710,-0.379,0.98,-0.322,-1.57,-0.21,-4.12
2022-12-08 18:32:19.5810,-0.556,1.124,-0.764,0.36,-0.66,0.98
2022-12-08 18:32:19.5910,-0.858,1.378,-0.81,2.16,-2.04,5.36
2022-12-08 18:32:19.6010,-1.207,1.684,-0.73,5.11,-4.51,5.91
2022-12-08 18:32:19.6110,-1.568,1.77,-0.694,8.49,-7.49,5.3
2022-12-08 18:32:19.6210,-1.843,1.478,-0.725,12.1,-8.28,5.15
2022-12-08 18:32:19.6310,-2.152,1.118,-0.666,14.97,-5.33,5.55
2022-12-08 18:32:19.6410,-2.078,0.838,-0.398,18.26,-1.73,4.89
2022-12-08 18:32:19.6520,-1.831,0.773,-0.141,17.8,1.06,2.05
2022-12-08 18:32:19.6610,-1.727,0.957,0.021,15.61,1.7,-0.73
2022-12-08 18:32:19.6710,-1.419,1.096,0.178,14.74,-0.13,-2.57
2022-12-08 18:32:19.6810,-0.903,1.079,0.401,11.76,-1.53,-4.29
2022-12-08 18:32:19.6910,-0.649,1.093,0.57,6.68,-1.4,-6.57
2022-12-08 18:32:19.7010,-0.583,1.121,0.487,4.14,-1.53,-8.2
2022-12-08 18:32:19.7120,-0.505,1.1,0.226,3.43,-1.78,-7.25
2022-12-08 18:32:19.7210,-0.405,1.082,-0.066,2.58,-1.55,-4.48
2022-12-08 18:32:19.7310,-0.232,1.073,-0.323,1.5,-1.34,-1.39
2022-12-08 18:32:19.7420,-0.087,1.01,-0.439,-0.29,-1.26,1.2
2022-12-08 18:32:19.7510,0.148,0.983,0.053,-1.81,-0.71,2.16
2022-12-08 18:32:19.7610,0.543,1.061,0.767,-4.19,-0.54,-2.92
2022-12-08 18:32:19.7710,0.716,1.096,0.906,-8.11,-1.37,-10.09
2022-12-08 18:32:19.7820,0.595,1.095,0.441,-9.83,-1.73,-11.51
2022-12-08 18:32:19.7920,0.457,1.18,0.122,-8.64,-1.71,-6.93
2022-12-08 18:32:19.8020,0.352,1.294,-0.024,-7.25,-2.52,-3.75
2022-12-08 18:32:19.8120,0.315,1.382,-0.067,-6.16,-3.61,-2.26
2022-12-08 18:32:19.8220,0.346,1.385,-0.064,-5.73,-4.43,-1.78
2022-12-08 18:32:19.8320,0.407,1.309,-0.071,-5.97,-4.42,-1.72
2022-12-08 18:32:19.8420,0.487,1.194,-0.077,-6.5,-3.63,-1.57
2022-12-08 18:32:19.8520,0.564,1.063,-0.072,-7.18,-2.45,-1.42
2022-12-08 18:32:19.8620,0.545,0.971,-0.062,-7.81,-1.12,-1.38
2022-12-08 18:32:19.8720,0.488,0.953,-0.056,-7.48,-0.16,-1.4
2022-12-08 18:32:19.8820,0.427,0.956,-0.047,-6.75,0.06,-1.37
2022-12-08 18:32:19.8920,0.426,0.944,-0.054,-5.98,0.09,-1.37
2022-12-08 18:32:19.9020,0.419,0.94,-0.068,-5.78,0.25,-1.21
2022-12-08 18:32:19.9120,0.377,0.958,-0.073,-5.53,0.34,-0.97
2022-12-08 18:32:19.9220,0.29,0.995,-0.077,-4.93,0.21,-0.8
2022-12-08 18:32:19.9320,0.281,1.017,-0.118,-3.91,-0.11,-0.61
2022-12-08 18:32:19.9420,0.301,1.04,-0.213,-3.67,-0.29,-0.05
2022-12-08 18:32:19.9520,0.283,1.048,-0.31,-3.72,-0.48,1.04
2022-12-08 18:32:19.9620,0.209,1.052,-0.359,-3.41,-0.54,2.14
2022-12-08 18:32:19.9720,0.139,1.051,-0.401,-2.54,-0.56,2.75
2022-12-08 18:32:19.9820,0.077,1.034,-0.444,-1.71,-0.53,3.26
2022-12-08 18:32:19.9920,-0.006,1.018,-0.467,-0.96,-0.36,3.74
2022-12-08 18:32:20.0020,-0.075,1.003,-0.456,-0.01,-0.2,3.99
2022-12-08 18:32:20.0120,-0.12,0.99,-0.417,0.8,-0.06,3.86
2022-12-08 18:32:20.0220,-0.153,0.987,-0.377,1.37,0.07,3.41
2022-12-08 18:32:20.0320,-0.189,0.995,-0.339,1.83,0.09,2.92
2022-12-08 18:32:20.0420,-0.218,1.006,-0.283,2.33,-0.01,2.42
2022-12-08 18:32:20.0520,-0.239,1.014,-0.227,2.77,-0.14,1.72
2022-12-08 18:32:20.0620,-0.275,1.026,-0.19,3.16,-0.26,1.01
2022-12-08 18:32:20.0720,-0.327,1.023,-0.153,3.71,-0.41,0.47
2022-12-08 18:32:20.0820,-0.352,1.005,-0.112,4.4,-0.43,-0.08
2022-12-08 18:32:20.0920,-0.339,0.949,-0.084,4.82,-0.31,-0.69
2022-12-08 18:32:20.1020,-0.327,0.877,0.137,4.84,0.16,-1.2
2022-12-08 18:32:20.1120,-0.5,0.811,1.564,4.84,0.8,-3.58
2022-12-08 18:32:20.1220,-0.597,0.823,1.29,6.6,1.43,-17.63
2022-12-08 18:32:20.1320,-0.446,0.854,-0.041,7.59,1.31,-14.93
2022-12-08 18:32:20.1420,-0.342,0.931,-0.286,6.16,1.0,-1.86
2022-12-08 18:32:20.1520,-0.355,1.025,-0.289,5.21,0.23,0.56
2022-12-08 18:32:20.1620,-0.375,1.086,-0.302,5.41,-0.69,0.65
2022-12-08 18:32:20.1720,-0.392,1.103,-0.332,5.69,-1.29,0.88
2022-12-08 18:32:20.1830,-0.417,1.094,-0.377,5.96,-1.44,1.32
2022-12-08 18:32:20.1920,-0.434,1.069,-0.439,6.28,-1.34,1.95
2022-12-08 18:32:20.2030,-0.438,1.042,-0.514,6.5,-1.07,2.76
2022-12-08 18:32:20.2130,-0.439,1.04,-0.561,6.56,-0.78,3.67
2022-12-08 18:32:20.2230,-0.436,1.05,-0.558,6.56,-0.74,4.28
2022-12-08 18:32:20.2330,-0.433,1.053,-0.5,6.49,-0.82,4.33
2022-12-08 18:32:20.2430,-0.427,1.017,-0.394,6.39,-0.82,3.78
2022-12-08 18:32:20.2530,-0.426,0.992,-0.272,6.23,-0.46,2.71
2022-12-08 18:32:20.2630,-0.445,1.005,-0.178,6.09,-0.19,1.46
2022-12-08 18:32:20.2730,-0.476,1.029,-0.109,6.13,-0.3,0.49
2022-12-08 18:32:20.2830,-0.533,1.069,0.078,6.25,-0.51,-0.26
2022-12-08 18:32:20.2930,-0.939,1.228,1.96,6.59,-0.87,-2.1
2022-12-08 18:32:20.3030,-0.866,1.338,0.998,10.34,-2.37,-20.36
2022-12-08 18:32:20.3130,-0.544,1.265,-0.251,9.36,-3.4,-10.72
2022-12-08 18:32:20.3230,-0.456,1.238,-0.116,5.9,-2.66,1.63
2022-12-08 18:32:20.3330,-0.399,1.267,-0.087,4.7,-2.37,0.37
2022-12-08 18:32:20.3430,-0.363,1.347,-0.101,3.79,-2.65,0.14
2022-12-08 18:32:20.3530,-0.325,1.471,-0.16,3.06,-3.44,0.34
2022-12-08 18:32:20.3630,-0.266,1.612,-0.247,2.29,-4.69,1.0
2022-12-08 18:32:20.3730,-0.197,1.738,-0.35,1.3,-6.11,1.95
2022-12-08 18:32:20.3830,-0.081,1.815,-0.446,0.23,-7.4,3.07
2022-12-08 18:32:20.3930,0.069,1.836,-0.469,-1.28,-8.22,4.11
2022-12-08 18:32:20.4030,0.205,1.807,-0.487,-3.08,-8.51,4.4
2022-12-08 18:32:20.4130,0.272,1.717,-0.469,-4.71,-8.3,4.6
2022-12-08 18:32:20.4230,0.269,1.58,-0.408,-5.61,-7.49,4.39
2022-12-08 18:32:20.4330,0.279,1.437,-0.335,-5.79,-6.22,3.7
2022-12-08 18:32:20.4430,0.286,1.297,-0.254,-6.06,-4.88,2.87
2022-12-08 18:32:20.4530,0.274,1.172,-0.18,-6.27,-3.56,1.97
2022-12-08 18:32:20.4630,0.267,1.072,-0.151,-6.28,-2.39,1.12
2022-12-08 18:32:20.4730,0.278,0.977,-0.141,-6.34,-1.48,0.71
2022-12-08 18:32:20.4830,0.31,0.893,-0.138,-6.58,-0.61,0.5
2022-12-08 18:32:20.4930,0.338,0.855,-0.092,-7.03,0.14,0.35
2022-12-08 18:32:20.5030,0.368,0.846,-0.013,-7.45,0.44,-0.23
2022-12-08 18:32:20.5130,0.393,0.837,0.086,-7.87,0.44,-1.12
2022-12-08 18:32:20.5230,0.352,0.791,0.354,-8.25,0.46,-2.17
2022-12-08 18:32:20.5330,0.347,0.735,0.397,-7.97,0.84,-4.8
2022-12-08 18:32:20.5430,0.404,0.696,0.2,-8.03,1.35,-5.14
2022-12-08 18:32:20.5530,0.443,0.666,0.027,-8.67,1.69,-3.12
2022-12-08 18:32:20.5630,0.436,0.626,-0.019,-9.09,1.97,-1.41
2022-12-08 18:32:20.5740,0.427,0.595,0.084,-9.03,2.36,-1.03
2022-12-08 18:32:20.5840,0.437,0.593,0.219,-8.9,2.67,-2.15
2022-12-08 18:32:20.5930,0.432,0.6,0.252,-8.94,2.69,-3.58
2022-12-08 18:32:20.6030,0.403,0.603,0.2,-8.83,2.65,-4.0
2022-12-08 18:32:20.6140,0.364,0.622,0.151,-8.46,2.64,-3.55
2022-12-08 18:32:20.6240,0.319,0.649,0.143,-8.0,2.49,-3.13
2022-12-08 18:32:20.6330,0.25,0.707,0.119,-7.46,2.27,-3.09
2022-12-08 18:32:20.6440,0.17,0.794,0.1,-6.67,1.74,-2.91
2022-12-08 18:32:20.6540,0.072,0.882,0.101,-5.76,0.93,-2.8
2022-12-08 18:32:20.6640,-0.115,0.951,0.078,-4.65,0.11,-2.91
2022-12-08 18:32:20.6740,-0.323,1.005,-0.185,-2.66,-0.52,-2.81
2022-12-08 18:32:20.6840,-0.471,1.082,-0.608,-0.48,-1.01,-0.32
2022-12-08 18:32:20.6940,-0.688,1.22,-0.718,1.06,-1.73,3.82
2022-12-08 18:32:20.7040,-0.954,1.381,-0.681,3.19,-3.07,4.98
2022-12-08 18:32:20.7140,-1.158,1.48,-0.633,5.77,-4.62,4.79
2022-12-08 18:32:20.7240,-1.439,1.336,-0.708,7.83,-5.52,4.56
2022-12-08 18:32:20.7340,-1.863,1.122,-0.736,10.75,-4.01,5.52
2022-12-08 18:32:20.7440,-2.133,0.967,-0.607,15.17,-1.8,5.9
2022-12-08 18:32:20.7540,-2.064,0.82,-0.41,18.1,-0.19,4.6
2022-12-08 18:32:20.7640,-1.874,0.801,-0.188,17.67,1.3,2.53
2022-12-08 18:32:20.7740,-1.688,0.945,-0.036,15.98,1.49,0.15
2022-12-08 18:32:20.7840,-1.352,1.023,0.08,14.24,0.07,-1.54
2022-12-08 18:32:20.7940,-0.786,1.015,0.308,10.92,-0.73,-2.83
2022-12-08 18:32:20.8040,-0.353,1.093,0.602,5.3,-0.69,-5.13
2022-12-08 18:32:20.8140,-0.298,1.152,0.585,1.0,-1.46,-7.98
2022-12-08 18:32:20.8240,-0.329,1.096,0.314,0.43,-2.02,-7.7
2022-12-08 18:32:20.8340,-0.314,1.062,0.021,0.7,-1.45,-4.88
2022-12-08 18:32:20.8440,-0.226,1.063,-0.25,0.51,-1.1,-1.85
2022-12-08 18:32:20.8540,-0.09,1.042,-0.428,-0.41,-1.11,0.9
2022-12-08 18:32:20.8640,0.066,1.023,-0.323,-1.82,-0.94,2.54
2022-12-08 18:32:20.8740,0.239,1.039,-0.034,-3.41,-0.82,1.28
2022-12-08 18:32:20.8840,0.59,1.082,0.708,-5.16,-1.05,-1.83
2022-12-08 18:32:20.8940,0.837,1.11,1.197,-8.63,-1.52,-9.28
2022-12-08 18:32:20.9040,0.55,1.086,0.491,-11.04,-1.8,-14.08
2022-12-08 18:32:20.9140,0.339,1.131,0.052,-8.18,-1.53,-7.08
2022-12-08 18:32:20.9240,0.286,1.2,-0.059,-6.06,-1.93,-2.67
2022-12-08 18:32:20.9340,0.266,1.238,-0.068,-5.47,-2.56,-1.48
2022-12-08 18:32:20.9440,0.258,1.222,-0.056,-5.21,-2.9,-1.29
2022-12-08 18:32:20.9550,0.29,1.161,-0.059,-5.07,-2.69,-1.28
2022-12-08 18:32:20.9640,0.317,1.094,-0.059,-5.3,-2.05,-1.12
2022-12-08 18:32:20.9740,0.326,1.038,-0.059,-5.47,-1.34,-1.0
2022-12-08 18:32:20.9850,0.279,1.013,-0.066,-5.45,-0.75,-0.87
2022-12-08 18:32:20.9940,0.199,1.011,-0.048,-4.86,-0.45,-0.67
2022-12-08 18:32:21.0040,0.156,1.003,-0.032,-3.94,-0.39,-0.72
2022-12-08 18:32:21.0150,0.136,0.997,-0.037,-3.39,-0.27,-0.75
2022-12-08 18:32:21.0240,0.132,1.007,-0.064,-3.06,-0.17,-0.57
2022-12-08 18:32:21.0340,0.158,1.019,-0.111,-2.88,-0.23,-0.16
2022-12-08 18:32:21.0450,0.185,1.042,-0.174,-2.99,-0.32,0.44
2022-12-08 18:32:21.0550,0.195,1.065,-0.252,-3.09,-0.51,1.2
2022-12-08 18:32:21.0650,0.162,1.062,-0.33,-3.01,-0.71,2.09
2022-12-08 18:32:21.0750,0.134,1.034,-0.424,-2.49,-0.66,2.96
2022-12-08 18:32:21.0850,0.087,1.019,-0.51,-2.02,-0.36,3.96
2022-12-08 18:32:21.0950,0.049,0.995,-0.57,-1.35,-0.2,4.84
2022-12-08 18:32:21.1050,-0.014,0.975,-0.588,-0.77,0.04,5.41
2022-12-08 18:32:21.1150,-0.064,0.953,-0.515,0.05,0.24,5.52
2022-12-08 18:32:21.1250,-0.061,0.926,-0.432,0.74,0.45,4.68
2022-12-08 18:32:21.1350,-0.053,0.906,-0.37,0.9,0.7,3.7
2022-12-08 18:32:21.1450,-0.076,0.907,-0.303,1.01,0.88,2.91
2022-12-08 18:32:21.1550,-0.111,0.929,-0.221,1.43,0.84,2.05
2022-12-08 18:32:21.1650,-0.148,0.972,-0.137,1.96,0.58,1.04
2022-12-08 18:32:21.1750,-0.191,1.009,0.174,2.52,0.13,0.01
2022-12-08 18:32:21.1850,-0.256,1.027,1.469,3.1,-0.28,-3.18
