time,gFx,gFy,gFz,ax,ay,az
2022-12-08 18:28:50.7070,0.006,-0.161,-1.015,-0.66,-0.3,1.03
2022-12-08 18:30:01.1360,0.019,-0.175,-0.979,-0.93,-0.35,0.37
2022-12-08 18:30:01.1430,0.04,-0.189,-0.952,-1.03,-0.26,0.03
2022-12-08 18:30:01.1530,0.046,-0.201,-0.926,-1.21,-0.18,-0.23
2022-12-08 18:30:01.1630,0.047,-0.222,-0.898,-1.26,-0.13,-0.47
2022-12-08 18:30:01.1730,0.053,-0.241,-0.873,-1.27,0.0,-0.73
2022-12-08 18:30:01.1830,0.058,-0.25,-0.854,-1.34,0.12,-0.96
2022-12-08 18:30:01.1930,0.057,-0.249,-0.84,-1.39,0.13,-1.13
2022-12-08 18:30:01.2030,0.048,-0.238,-0.83,-1.4,0.07,-1.25
2022-12-08 18:30:01.2140,0.044,-0.228,-0.817,-1.34,-0.08,-1.33
2022-12-08 18:30:01.2230,0.064,-0.236,-0.828,-1.33,-0.21,-1.45
2022-12-08 18:30:01.2340,0.06,-0.24,-0.867,-1.57,-0.15,-1.33
2022-12-08 18:30:01.2430,0.025,-0.22,-0.876,-1.57,-0.13,-0.94
2022-12-08 18:30:01.2530,-0.001,-0.191,-0.85,-1.05,-0.64,-1.09
2022-12-08 18:30:01.2650,-0.004,-0.158,-0.816,-1.05,-0.64,-1.09
2022-12-08 18:30:01.2730,0.019,-0.126,-0.761,-1.04,-0.97,-1.43
2022-12-08 18:30:01.2840,0.042,-0.107,-0.705,-1.26,-1.27,-1.96
2022-12-08 18:30:01.2940,0.05,-0.142,-0.698,-1.46,-1.42,-2.52
2022-12-08 18:30:01.3030,0.068,-0.168,-0.701,-1.5,-1.0,-2.61
2022-12-08 18:30:01.3140,0.051,-0.19,-0.714,-1.65,-0.66,-2.62
2022-12-08 18:30:01.3240,0.015,-0.221,-0.741,-1.48,-0.32,-2.51
2022-12-08 18:30:01.3340,-0.038,-0.196,-0.759,-1.13,0.13,-2.29
2022-12-08 18:30:01.3440,-0.083,-0.162,-0.786,-0.64,0.05,-2.14
2022-12-08 18:30:01.3540,-0.133,-0.226,-0.84,-0.24,-0.12,-1.9
2022-12-08 18:30:01.3640,-0.166,-0.24,-0.866,0.17,0.67,-1.39
2022-12-08 18:30:01.3740,-0.173,-0.186,-0.838,0.41,0.95,-1.14
2022-12-08 18:30:01.3840,-0.157,-0.155,-0.834,0.39,0.56,-1.42
2022-12-08 18:30:01.3940,-0.125,-0.152,-0.871,0.15,0.38,-1.47
2022-12-08 18:30:01.4040,-0.113,-0.147,-0.894,-0.23,0.45,-1.11
2022-12-08 18:30:01.4140,-0.098,-0.138,-0.903,-0.39,0.48,-0.88
2022-12-08 18:30:01.4240,-0.092,-0.14,-0.933,-0.56,0.46,-0.8
2022-12-08 18:30:01.4340,-0.112,-0.141,-1.016,-0.6,0.52,-0.51
2022-12-08 18:30:01.4440,-0.149,-0.163,-0.933,-0.36,0.54,0.3
2022-12-08 18:30:01.4540,-0.156,-0.155,-0.898,0.03,0.76,-0.52
2022-12-08 18:30:01.4660,-0.164,-0.194,-0.929,0.15,0.68,-0.87
2022-12-08 18:30:01.4760,-0.077,0.023,-0.958,0.23,1.04,-0.57
2022-12-08 18:30:01.4840,-0.132,0.117,-1.033,-0.69,-1.14,-0.27
2022-12-08 18:30:01.4940,-0.12,-0.038,-1.19,-0.27,-2.15,0.49
2022-12-08 18:30:01.5040,-0.095,-0.073,-1.237,-0.58,-0.76,2.08
2022-12-08 18:30:01.5140,-0.205,-0.074,-1.245,-1.04,-0.58,2.61
2022-12-08 18:30:01.5240,-0.397,-0.115,-1.243,-0.19,-0.76,2.77
2022-12-08 18:30:01.5340,-0.344,-0.091,-1.143,1.48,-0.59,2.83
2022-12-08 18:30:01.5440,-0.238,-0.028,-0.949,0.75,-1.07,1.95
2022-12-08 18:30:01.5540,-0.465,-0.088,-0.863,-0.48,-1.93,0.16
2022-12-08 18:30:01.5640,-0.396,-0.067,-1.02,1.58,-1.6,-0.55
2022-12-08 18:30:01.5740,-0.327,-0.01,-0.962,0.75,-2.07,1.12
2022-12-08 18:30:01.5840,-0.381,0.025,-0.875,-0.08,-2.91,0.69
2022-12-08 18:30:01.5940,-0.474,-0.024,-0.808,0.32,-3.53,-0.02
2022-12-08 18:30:01.6040,-0.565,-0.149,-0.68,1.14,-3.27,-0.55
2022-12-08 18:30:01.6140,-0.605,-0.258,-0.677,1.97,-2.19,-1.71
2022-12-08 18:30:01.6240,-0.609,-0.395,-0.693,2.33,-1.22,-1.68
2022-12-08 18:30:01.6340,-0.594,-0.527,-0.728,2.36,0.07,-1.5
2022-12-08 18:30:01.6450,-0.6,-0.539,-0.773,2.25,1.33,-1.16
2022-12-08 18:30:01.6540,-0.574,-0.412,-0.78,2.38,1.44,-0.74
2022-12-08 18:30:01.6650,-0.54,-0.237,-0.759,2.2,0.19,-0.7
2022-12-08 18:30:01.6750,-0.462,-0.104,-0.728,1.92,-1.52,-0.93
2022-12-08 18:30:01.6850,-0.374,-0.026,-0.699,1.16,-2.83,-1.24
2022-12-08 18:30:01.6950,-0.33,0.003,-0.681,0.22,-3.6,-1.49
2022-12-08 18:30:01.7050,-0.311,-0.022,-0.671,-0.4,-3.88,-1.59
2022-12-08 18:30:01.7150,-0.323,-0.09,-0.666,-0.88,-3.64,-1.54
2022-12-08 18:30:01.7250,-0.344,-0.149,-0.617,-1.35,-2.42,-1.62
2022-12-08 18:30:01.7370,-0.398,-0.166,-0.528,-1.35,-2.42,-1.62
2022-12-08 18:30:01.7450,-0.568,-0.077,-0.405,-1.26,-2.26,-2.21
2022-12-08 18:30:01.7550,-0.766,0.096,-0.298,-0.03,-3.12,-3.1
2022-12-08 18:30:01.7650,-0.875,0.187,-0.277,1.47,-4.76,-3.8
2022-12-08 18:30:01.7750,-0.899,0.185,-0.37,2.1,-5.57,-3.63
2022-12-08 18:30:01.7850,-0.865,0.186,-0.498,1.93,-5.46,-2.34
2022-12-08 18:30:01.7950,-0.676,0.21,-0.527,1.22,-5.34,-0.7
2022-12-08 18:30:01.8050,-0.557,0.216,-0.498,-0.99,-5.42,-0.03
2022-12-08 18:30:01.8150,-0.637,0.268,-0.449,-2.47,-5.28,0.05
2022-12-08 18:30:01.8250,-0.696,0.303,-0.399,-1.99,-5.55,-0.06
2022-12-08 18:30:01.8350,-0.803,0.279,-0.393,-1.69,-5.62,-0.19
2022-12-08 18:30:01.8450,-0.92,0.236,-0.424,-0.89,-5.1,0.12
2022-12-08 18:30:01.8550,-1.026,0.201,-0.464,0.89,-3.75,1.54
2022-12-08 18:30:01.8670,-1.082,0.165,-0.488,1.28,-3.12,2.12
2022-12-08 18:30:01.8770,-1.084,0.166,-0.481,1.18,-2.85,2.36
2022-12-08 18:30:01.8870,-1.081,0.185,-0.421,1.18,-2.85,2.36
2022-12-08 18:30:01.8950,-1.082,0.184,-0.381,1.06,-2.75,2.04
2022-12-08 18:30:01.9050,-1.093,0.151,-0.38,1.0,-2.44,1.88
2022-12-08 18:30:01.9150,-1.118,0.125,-0.376,1.05,-1.82,2.07
2022-12-08 18:30:01.9250,-1.193,0.102,-0.378,1.26,-1.26,2.22
2022-12-08 18:30:01.9350,-1.296,0.056,-0.41,1.98,-0.72,2.39
2022-12-08 18:30:01.9450,-1.376,-0.002,-0.423,2.99,0.04,2.83
2022-12-08 18:30:01.9550,-1.423,-0.063,-0.415,3.78,0.89,3.07
2022-12-08 18:30:01.9650,-1.447,-0.121,-0.371,4.27,1.76,3.06
2022-12-08 18:30:01.9750,-1.448,-0.163,-0.334,4.53,2.59,2.69
2022-12-08 18:30:01.9850,-1.466,-0.192,-0.324,4.57,3.24,2.37
2022-12-08 18:30:01.9950,-1.486,-0.221,-0.333,4.79,3.75,2.3
2022-12-08 18:30:02.0050,-1.514,-0.262,-0.314,5.02,4.23,2.38
2022-12-08 18:30:02.0150,-1.523,-0.313,-0.267,5.34,4.81,2.17
2022-12-08 18:30:02.0250,-1.501,-0.358,-0.213,5.47,5.47,1.67
2022-12-08 18:30:02.0350,-1.509,-0.407,-0.16,5.29,6.02,1.09
2022-12-08 18:30:02.0460,-1.529,-0.464,-0.089,5.4,6.59,0.51
2022-12-08 18:30:02.0560,-1.56,-0.513,-0.081,5.62,7.21,-0.28
2022-12-08 18:30:02.0660,-1.567,-0.54,-0.063,5.95,7.72,-0.47
2022-12-08 18:30:02.0760,-1.567,-0.564,-0.007,6.03,7.98,-0.76
2022-12-08 18:30:02.0860,-1.522,-0.578,0.087,6.04,8.17,-1.44
2022-12-08 18:30:02.0960,-1.452,-0.575,0.204,5.6,8.23,-2.51
2022-12-08 18:30:02.1060,-1.359,-0.567,0.377,4.91,8.08,-3.8
2022-12-08 18:30:02.1160,-1.249,-0.556,0.544,3.99,7.88,-5.65
2022-12-08 18:30:02.1260,-1.154,-0.53,0.627,2.91,7.64,-7.42
2022-12-08 18:30:02.1360,-1.104,-0.482,0.58,1.97,7.25,-8.34
2022-12-08 18:30:02.1460,-1.107,-0.419,0.37,1.48,6.64,-7.97
2022-12-08 18:30:02.1560,-1.113,-0.35,0.17,1.5,5.88,-5.98
2022-12-08 18:30:02.1660,-1.19,-0.309,0.032,1.54,5.05,-4.08
2022-12-08 18:30:02.1760,-1.22,-0.212,-0.01,2.27,4.47,-2.75
2022-12-08 18:30:02.1860,-1.283,-0.015,0.036,2.54,3.3,-2.33
2022-12-08 18:30:02.1960,-1.171,0.126,-0.002,3.12,1.12,-2.77
2022-12-08 18:30:02.2060,-0.916,0.139,-0.06,1.99,-0.52,-2.36
2022-12-08 18:30:02.2160,-0.809,0.149,-0.185,-0.53,-0.89,-1.76
2022-12-08 18:30:02.2260,-0.808,0.111,-0.253,-1.6,-1.19,-0.49
2022-12-08 18:30:02.2360,-0.967,0.181,-0.3,-1.62,-0.99,0.2
2022-12-08 18:30:02.2460,-1.075,0.407,-0.228,-0.06,-1.82,0.68
2022-12-08 18:30:02.2560,-0.962,0.495,-0.173,0.99,-4.17,0.01
2022-12-08 18:30:02.2660,-0.911,0.532,-0.126,-0.13,-5.14,-0.48
2022-12-08 18:30:02.2760,-0.972,0.46,-0.191,-0.64,-5.6,-0.89
2022-12-08 18:30:02.2860,-1.096,0.349,-0.293,-0.05,-4.98,-0.19
2022-12-08 18:30:02.2960,-1.235,0.183,-0.427,1.16,-3.98,0.87
2022-12-08 18:30:02.3060,-1.222,0.247,-0.509,2.52,-2.46,2.25
2022-12-08 18:30:02.3160,-1.025,0.381,-0.506,2.39,-3.2,3.1
2022-12-08 18:30:02.3260,-0.91,0.416,-0.494,0.45,-4.62,3.14
2022-12-08 18:30:02.3360,-0.901,0.437,-0.469,-0.68,-5.04,3.06
2022-12-08 18:30:02.3460,-0.936,0.413,-0.438,-0.76,-5.31,2.84
2022-12-08 18:30:02.3560,-0.934,0.362,-0.327,-0.42,-5.09,2.55
2022-12-08 18:30:02.3660,-0.926,0.272,-0.303,-0.44,-4.6,1.47
2022-12-08 18:30:02.3760,-0.896,0.278,-0.273,-0.52,-3.71,1.22
2022-12-08 18:30:02.3860,-0.873,0.241,-0.282,-0.81,-3.74,0.91
2022-12-08 18:30:02.3960,-0.858,0.181,-0.283,-1.04,-3.34,0.97
2022-12-08 18:30:02.4060,-0.835,0.103,-0.259,-1.18,-2.69,0.95
2022-12-08 18:30:02.4160,-0.771,0.046,-0.214,-1.41,-1.83,0.68
2022-12-08 18:30:02.4260,-0.727,-0.006,-0.206,-2.04,-1.13,0.18
2022-12-08 18:30:02.4360,-0.695,0.05,-0.194,-2.47,-0.46,0.05
2022-12-08 18:30:02.4470,-0.671,0.016,-0.2,-2.78,-0.8,-0.12
2022-12-08 18:30:02.4560,-1.12,-0.278,-0.173,-3.02,-0.24,-0.11
2022-12-08 18:30:02.4660,-1.025,-0.13,-0.067,1.4,2.83,-0.41
2022-12-08 18:30:02.4770,-0.892,-0.015,-0.133,0.48,1.54,-1.5
2022-12-08 18:30:02.4870,-0.712,0.117,-0.196,-0.81,0.58,-0.9
2022-12-08 18:30:02.4970,-0.527,0.286,-0.249,-2.55,-0.53,-0.33
2022-12-08 18:30:02.5070,-0.434,0.419,-0.331,-4.33,-1.97,0.12
2022-12-08 18:30:02.5170,-0.372,0.535,-0.374,-5.19,-3.0,0.82
2022-12-08 18:30:02.5270,-0.414,0.578,-0.399,-5.72,-3.83,1.13
2022-12-08 18:30:02.5370,-0.621,0.61,-0.443,-5.24,-3.93,1.28
2022-12-08 18:30:02.5470,-0.843,0.576,-0.538,-3.11,-3.91,1.66
2022-12-08 18:30:02.5570,-1.089,0.518,-0.711,-0.85,-3.26,2.56
2022-12-08 18:30:02.5670,-1.288,0.546,-0.898,1.65,-2.42,4.23
2022-12-08 18:30:02.5770,-1.301,0.581,-0.85,3.68,-2.46,5.99
2022-12-08 18:30:02.5870,-1.2,0.655,-0.595,3.91,-2.61,5.42
2022-12-08 18:30:02.5970,-1.168,0.622,-0.355,3.03,-3.17,2.78
2022-12-08 18:30:02.6070,-1.237,0.464,-0.203,2.85,-2.68,0.25
2022-12-08 18:30:02.6170,-1.306,0.365,-0.416,3.66,-0.99,-1.46
2022-12-08 18:30:02.6270,-1.464,0.27,-0.699,4.46,0.06,0.42
2022-12-08 18:30:02.6370,-1.555,0.131,0.178,6.12,1.0,2.99
2022-12-08 18:30:02.6470,-1.426,-0.033,0.378,7.09,2.32,-5.82
2022-12-08 18:30:02.6570,-1.186,-0.044,0.251,3.54,3.95,-6.77
2022-12-08 18:30:02.6680,-1.08,-0.04,-0.032,3.54,3.95,-6.77
2022-12-08 18:30:02.6780,-1.008,-0.082,-0.12,2.5,3.84,-4.03
2022-12-08 18:30:02.6870,-0.993,-0.133,-0.063,1.63,4.66,-3.77
2022-12-08 18:30:02.6980,-1.026,-0.18,-0.058,1.63,4.66,-3.77
2022-12-08 18:30:02.7070,-0.933,-0.201,-0.021,1.96,5.09,-3.85
2022-12-08 18:30:02.7170,-0.759,-0.195,0.117,1.06,5.27,-4.26
2022-12-08 18:30:02.7270,-0.697,-0.257,0.213,-0.65,5.17,-5.63
2022-12-08 18:30:02.7370,-0.757,-0.367,0.214,-1.3,5.72,-6.56
2022-12-08 18:30:02.7470,-0.886,-0.471,0.13,-0.76,6.73,-6.52
2022-12-08 18:30:02.7570,-0.967,-0.611,-0.037,0.43,7.64,-5.61
2022-12-08 18:30:02.7670,-0.883,-0.778,-0.315,1.11,8.88,-3.86
2022-12-08 18:30:02.7770,-0.859,-0.706,-0.478,0.17,10.37,-1.01
2022-12-08 18:30:02.7870,-0.842,-0.741,-0.532,-0.18,9.5,0.73
2022-12-08 18:30:02.7970,-0.834,-0.605,-0.549,-0.45,9.69,1.39
2022-12-08 18:30:02.8070,-0.76,-0.408,-0.573,-0.62,8.22,1.68
2022-12-08 18:30:02.8170,-0.704,-0.277,-0.44,-1.41,6.19,2.03
2022-12-08 18:30:02.8270,-0.738,0.004,-0.184,-2.02,4.83,0.81
2022-12-08 18:30:02.8370,-0.729,0.609,-0.14,-1.72,2.04,-1.62
2022-12-08 18:30:02.8470,-0.7,0.972,-0.209,-1.82,-3.86,-1.99
2022-12-08 18:30:02.8580,-0.66,1.168,-0.209,-2.11,-7.34,-1.24
2022-12-08 18:30:02.8680,-0.682,1.148,-0.118,-2.49,-9.1,-1.17
2022-12-08 18:30:02.8770,-0.714,1.059,-0.16,-2.25,-8.67,-1.96
2022-12-08 18:30:02.8870,-0.691,1.034,-0.282,-1.9,-7.52,-1.41
2022-12-08 18:30:02.8970,-0.683,0.846,-0.304,-2.06,-6.95,-0.04
2022-12-08 18:30:02.9070,-0.671,0.596,-0.292,-2.06,-4.7,0.38
2022-12-08 18:30:02.9180,-0.686,0.501,-0.323,-2.02,-1.78,0.46
2022-12-08 18:30:02.9280,-0.602,0.58,-0.274,-1.67,-0.34,0.97
2022-12-08 18:30:02.9380,-0.519,0.679,-0.04,-2.2,-0.56,0.65
2022-12-08 18:30:02.9480,-0.528,0.744,0.342,-2.67,-0.96,-1.47
2022-12-08 18:30:02.9580,-0.696,0.925,1.091,-2.2,-1.04,-4.99
2022-12-08 18:30:02.9680,-0.808,1.104,1.168,-0.13,-2.28,-12.03
2022-12-08 18:30:02.9780,-0.955,0.781,0.442,1.42,-3.55,-12.41
2022-12-08 18:30:02.9880,-1.126,0.601,0.013,3.3,0.03,-4.9
2022-12-08 18:30:02.9980,-1.24,0.696,-0.254,5.41,2.13,-0.34
2022-12-08 18:30:03.0080,-1.237,0.771,-0.399,6.98,1.49,2.57
2022-12-08 18:30:03.0180,-1.077,0.766,-0.344,7.42,1.03,4.18
2022-12-08 18:30:03.0280,-0.79,0.68,-0.241,6.36,1.33,3.72
2022-12-08 18:30:03.0380,-0.509,0.617,-0.103,4.07,2.42,2.71
2022-12-08 18:30:03.0480,-0.599,0.549,-0.117,1.87,3.24,1.31
2022-12-08 18:30:03.0580,-0.735,0.496,-0.216,3.3,4.07,1.37
2022-12-08 18:30:03.0680,-0.777,0.628,-0.183,5.12,4.71,2.26
2022-12-08 18:30:03.0780,-0.746,1.022,0.047,5.95,3.51,1.87
2022-12-08 18:30:03.0880,-0.595,1.51,0.167,6.03,-0.3,-0.42
2022-12-08 18:30:03.0980,-0.376,1.919,0.193,4.89,-5.05,-1.57
2022-12-08 18:30:03.1080,-0.141,2.422,0.143,3.08,-9.04,-1.73
2022-12-08 18:30:03.1180,0.14,3.046,0.091,-1.38,-20.09,-0.53
2022-12-08 18:30:03.1310,0.26,3.068,0.056,-1.38,-20.09,-0.53
2022-12-08 18:30:03.1390,0.22,2.44,-0.02,-2.4,-20.3,-0.2
2022-12-08 18:30:03.1480,0.34,1.727,-0.036,-2.01,-14.13,0.41
2022-12-08 18:30:03.1580,0.487,1.283,0.018,-3.29,-7.13,0.35
2022-12-08 18:30:03.1680,0.575,0.794,-0.021,-4.91,-2.79,-0.4
2022-12-08 18:30:03.1780,0.646,0.452,-0.038,-6.02,2.0,-0.21
2022-12-08 18:30:03.1880,0.7,0.209,-0.06,-7.02,5.33,-0.18
2022-12-08 18:30:03.1980,0.792,0.018,0.043,-7.87,7.69,-0.05
2022-12-08 18:30:03.2080,0.906,-0.057,0.192,-9.09,9.52,-1.11
2022-12-08 18:30:03.2180,1.019,-0.025,0.211,-10.52,10.2,-2.58
2022-12-08 18:30:03.2280,1.093,0.071,0.129,-11.89,9.84,-2.76
2022-12-08 18:30:03.2380,1.123,0.194,0.028,-12.81,8.86,-1.92
2022-12-08 18:30:03.2480,1.118,0.324,-0.04,-13.18,7.64,-0.91
2022-12-08 18:30:03.2580,1.058,0.446,-0.046,-13.11,6.37,-0.22
2022-12-08 18:30:03.2680,0.876,0.559,0.055,-12.4,5.21,-0.12
2022-12-08 18:30:03.2780,0.636,0.665,0.285,-10.42,4.14,-1.08
2022-12-08 18:30:03.2880,0.344,0.816,0.728,-7.84,3.14,-3.27
2022-12-08 18:30:03.2980,-0.118,1.019,1.023,-4.76,1.7,-7.48
2022-12-08 18:30:03.3080,-0.6,1.187,0.488,-0.02,-0.26,-10.2
2022-12-08 18:30:03.3190,-0.881,1.307,-0.447,4.92,-1.89,-4.82
2022-12-08 18:30:03.3290,-1.127,1.472,-0.937,7.89,-3.05,4.36
2022-12-08 18:30:03.3390,-1.332,1.619,-0.925,10.5,-4.65,9.06
2022-12-08 18:30:03.3490,-1.408,1.688,-0.612,12.67,-6.09,8.74
2022-12-08 18:30:03.3590,-1.493,1.721,-0.316,13.5,-6.78,5.44
2022-12-08 18:30:03.3690,-1.562,1.673,-0.179,14.36,-7.12,2.3
2022-12-08 18:30:03.3790,-1.554,1.537,-0.164,14.96,-6.67,0.72
2022-12-08 18:30:03.3890,-1.35,1.3,-0.245,14.71,-5.37,0.32
2022-12-08 18:30:03.3990,-0.876,1.132,-0.285,12.45,-3.1,0.87
2022-12-08 18:30:03.4090,-0.311,1.107,-0.219,7.49,-1.51,1.08
2022-12-08 18:30:03.4190,0.05,1.147,-0.119,1.65,-1.32,0.33
2022-12-08 18:30:03.4290,0.25,1.294,0.052,-2.14,-1.76,-0.67
2022-12-08 18:30:03.4390,0.318,1.591,0.322,-4.26,-3.22,-2.27
2022-12-08 18:30:03.4490,0.099,1.869,0.468,-5.01,-6.12,-4.78
2022-12-08 18:30:03.4590,-0.033,1.882,0.586,-2.88,-8.83,-6.07
2022-12-08 18:30:03.4690,0.15,1.511,0.543,-1.59,-8.95,-7.16
2022-12-08 18:30:03.4790,0.313,1.088,0.28,-3.38,-5.3,-6.7
2022-12-08 18:30:03.4890,0.279,0.833,-0.017,-4.94,-1.14,-4.05
2022-12-08 18:30:03.4990,0.287,0.692,-0.183,-4.56,1.39,-1.06
2022-12-08 18:30:03.5090,0.353,0.639,-0.183,-4.56,2.79,0.64
2022-12-08 18:30:03.5190,0.391,0.632,-0.17,-5.08,3.35,0.73
2022-12-08 18:30:03.5310,0.415,0.665,-0.169,-5.3,3.45,0.69
2022-12-08 18:30:03.5390,0.418,0.736,-0.167,-5.33,3.16,0.77
2022-12-08 18:30:03.5490,0.426,0.821,-0.16,-5.16,2.5,0.82
2022-12-08 18:30:03.5590,0.417,0.928,-0.105,-5.04,1.69,0.82
2022-12-08 18:30:03.5690,0.428,1.042,-0.071,-4.79,0.65,0.35
2022-12-08 18:30:03.5790,0.473,1.115,-0.06,-4.78,-0.46,0.06
2022-12-08 18:30:03.5890,0.52,1.128,-0.049,-5.13,-1.16,-0.02
2022-12-08 18:30:03.5990,0.555,1.112,-0.043,-5.51,-1.29,-0.11
2022-12-08 18:30:03.6090,0.555,1.073,-0.046,-5.76,-1.12,-0.16
2022-12-08 18:30:03.6190,0.533,1.032,-0.048,-5.64,-0.74,-0.11
2022-12-08 18:30:03.6290,0.537,0.993,-0.038,-5.3,-0.33,-0.08
2022-12-08 18:30:03.6390,0.58,0.948,-0.073,-5.19,0.05,-0.13
2022-12-08 18:30:03.6490,0.556,0.915,-0.118,-5.44,0.49,0.28
2022-12-08 18:30:03.6590,0.484,0.904,-0.147,-5.04,0.81,0.83
2022-12-08 18:30:03.6690,0.423,0.943,-0.192,-4.17,0.92,1.24
2022-12-08 18:30:03.6790,0.364,0.986,-0.269,-3.39,0.53,1.8
2022-12-08 18:30:03.6890,0.264,0.987,-0.337,-2.61,0.08,2.63
2022-12-08 18:30:03.6990,0.137,0.977,-0.379,-1.42,0.05,3.31
2022-12-08 18:30:03.7090,0.063,0.958,-0.406,0.03,0.12,3.69
2022-12-08 18:30:03.7190,-0.005,0.878,-0.396,0.94,0.28,3.87
2022-12-08 18:30:03.7290,-0.048,0.858,-0.356,1.79,1.04,3.66
2022-12-08 18:30:03.7390,-0.035,0.919,-0.292,2.36,1.19,3.12
2022-12-08 18:30:03.7490,0.012,0.999,-0.208,2.4,0.56,2.32
2022-12-08 18:30:03.7600,0.053,1.038,-0.13,2.07,-0.27,1.31
2022-12-08 18:30:03.7700,0.075,1.029,-0.067,1.8,-0.7,0.36
2022-12-08 18:30:03.7800,0.092,0.99,-0.013,1.71,-0.67,-0.45
2022-12-08 18:30:03.7900,0.123,0.957,0.029,1.66,-0.34,-1.15
2022-12-08 18:30:03.8000,0.169,0.944,0.062,1.46,-0.07,-1.73
2022-12-08 18:30:03.8100,0.239,0.938,0.09,1.12,0.0,-2.22
2022-12-08 18:30:03.8200,0.302,0.907,0.113,0.54,0.0,-2.64
2022-12-08 18:30:03.8300,0.337,0.869,0.128,0.03,0.25,-3.0
2022-12-08 18:30:03.8400,0.367,0.87,0.138,-0.22,0.55,-3.29
2022-12-08 18:30:03.8500,0.347,0.911,0.138,-0.41,0.48,-3.54
2022-12-08 18:30:03.8600,0.266,1.022,0.157,-0.12,-0.01,-3.71
2022-12-08 18:30:03.8700,0.082,1.122,0.323,0.77,-1.17,-4.05
2022-12-08 18:30:03.8800,-0.11,1.174,0.461,2.66,-2.22,-5.79
2022-12-08 18:30:03.8900,-0.14,1.189,0.238,4.62,-2.77,-7.17
2022-12-08 18:30:03.9000,-0.106,1.181,-0.041,5.0,-2.93,-4.93
2022-12-08 18:30:03.9100,-0.103,1.152,-0.193,4.75,-2.87,-2.11
2022-12-08 18:30:03.9200,-0.136,1.142,-0.232,4.8,-2.59,-0.53
2022-12-08 18:30:03.9300,-0.157,1.18,-0.22,5.21,-2.51,-0.07
2022-12-08 18:30:03.9400,-0.167,1.208,-0.2,5.46,-2.89,-0.14
2022-12-08 18:30:03.9500,-0.175,1.227,-0.183,5.6,-3.17,-0.29
2022-12-08 18:30:03.9600,-0.194,1.252,-0.162,5.71,-3.36,-0.41
2022-12-08 18:30:03.9700,-0.205,1.256,-0.14,5.9,-3.59,-0.57
2022-12-08 18:30:03.9800,-0.225,1.22,-0.12,6.0,-3.62,-0.73
2022-12-08 18:30:03.9900,-0.264,1.176,-0.099,6.17,-3.24,-0.88
2022-12-08 18:30:04.0000,-0.294,1.145,-0.054,6.5,-2.77,-1.01
2022-12-08 18:30:04.0100,-0.434,1.177,0.274,6.73,-2.42,-1.38
2022-12-08 18:30:04.0200,-0.73,1.274,0.776,8.03,-2.67,-4.44
2022-12-08 18:30:04.0300,-0.641,1.318,0.365,9.81,-3.88,-4.92
2022-12-08 18:30:04.0420,-0.443,1.361,0.088,9.81,-3.88,-4.92
2022-12-08 18:30:04.0500,-0.322,1.417,0.068,7.67,-4.21,-2.05
2022-12-08 18:30:04.0600,-0.158,1.403,0.034,6.25,-4.65,-1.72
2022-12-08 18:30:04.0700,-0.007,1.368,-0.026,4.38,-4.42,-1.25
2022-12-08 18:30:04.0800,0.097,1.363,-0.093,2.64,-3.99,-0.5
2022-12-08 18:30:04.0900,0.181,1.38,-0.162,1.37,-3.86,0.36
2022-12-08 18:30:04.1000,0.276,1.447,-0.233,0.29,-3.96,1.25
2022-12-08 18:30:04.1100,0.401,1.53,-0.308,-0.89,-4.56,2.19
2022-12-08 18:30:04.1200,0.518,1.588,-0.4,-3.72,-5.88,4.34
2022-12-08 18:30:04.1330,0.593,1.62,-0.483,-3.72,-5.88,4.34
2022-12-08 18:30:04.1400,0.624,1.657,-0.536,-4.69,-6.17,5.35
2022-12-08 18:30:04.1500,0.631,1.586,-0.521,-5.25,-6.52,5.97
2022-12-08 18:30:04.1610,0.682,1.562,-0.437,-5.6,-5.8,5.83
2022-12-08 18:30:04.1710,0.742,1.463,-0.345,-6.41,-5.54,4.93
2022-12-08 18:30:04.1810,0.775,1.273,-0.292,-7.29,-4.56,3.9
2022-12-08 18:30:04.1910,0.789,1.119,-0.263,-7.88,-2.7,3.24
2022-12-08 18:30:04.2010,0.79,0.972,-0.231,-8.27,-1.19,2.82
2022-12-08 18:30:04.2110,0.789,0.845,-0.223,-8.49,0.24,2.37
2022-12-08 18:30:04.2220,0.771,0.73,-0.27,-8.68,1.47,2.18
2022-12-08 18:30:04.2330,0.688,0.605,-0.3,-8.66,2.58,2.53
2022-12-08 18:30:04.2410,0.601,0.538,-0.245,-7.97,3.79,2.7
2022-12-08 18:30:04.2510,0.52,0.524,-0.198,-7.23,4.43,2.03
2022-12-08 18:30:04.2610,0.431,0.531,-0.114,-6.53,4.55,1.41
2022-12-08 18:30:04.2710,0.252,0.553,0.234,-5.74,4.46,0.41
2022-12-08 18:30:04.2810,-0.052,0.568,0.821,-4.06,4.21,-3.15
2022-12-08 18:30:04.2910,0.057,0.597,0.368,-1.17,4.04,-8.99
2022-12-08 18:30:04.3010,0.22,0.603,0.142,-2.32,3.74,-4.6
2022-12-08 18:30:04.3110,0.344,0.599,0.058,-3.99,3.66,-2.43
2022-12-08 18:30:04.3210,0.472,0.588,0.036,-5.26,3.69,-1.65
2022-12-08 18:30:04.3310,0.568,0.574,0.055,-6.56,3.78,-1.48
2022-12-08 18:30:04.3410,0.602,0.547,0.075,-7.52,3.91,-1.72
2022-12-08 18:30:04.3510,0.59,0.517,0.089,-7.85,4.17,-1.96
2022-12-08 18:30:04.3610,0.553,0.509,0.103,-7.72,4.46,-2.15
2022-12-08 18:30:04.3710,0.49,0.529,0.113,-7.32,4.54,-2.32
2022-12-08 18:30:04.3810,0.404,0.568,0.113,-6.65,4.35,-2.44
2022-12-08 18:30:04.3910,0.286,0.628,0.102,-5.72,3.98,-2.46
2022-12-08 18:30:04.4010,0.136,0.712,0.138,-4.47,3.41,-2.37
2022-12-08 18:30:04.4110,-0.038,0.823,0.105,-2.91,2.59,-2.74
2022-12-08 18:30:04.4220,-0.245,0.969,-0.167,-1.09,1.52,-2.43
2022-12-08 18:30:04.4310,-0.367,1.124,-0.597,1.03,0.1,0.21
2022-12-08 18:30:04.4410,-0.437,1.287,-0.919,2.29,-1.42,4.38
2022-12-08 18:30:04.4510,-0.574,1.442,-0.985,3.03,-3.02,7.49
2022-12-08 18:30:04.4610,-0.768,1.615,-0.91,4.39,-4.55,8.1
2022-12-08 18:30:04.4710,-1.037,1.772,-0.699,6.27,-6.25,7.32
2022-12-08 18:30:04.4810,-1.282,1.801,-0.504,8.89,-7.81,5.2
2022-12-08 18:30:04.4910,-1.46,1.635,-0.454,11.23,-8.11,3.2
2022-12-08 18:30:04.5010,-1.546,1.36,-0.449,12.85,-6.53,2.58
2022-12-08 18:30:04.5110,-1.507,1.134,-0.42,13.49,-3.89,2.41
2022-12-08 18:30:04.5210,-1.227,1.013,-0.37,12.8,-1.76,2.0
2022-12-08 18:30:04.5310,-0.771,1.0,-0.276,9.65,-0.68,1.42
2022-12-08 18:30:04.5410,-0.464,0.977,-0.175,4.78,-0.68,0.44
2022-12-08 18:30:04.5510,-0.279,0.921,-0.117,1.39,-0.59,-0.58
2022-12-08 18:30:04.5610,-0.155,0.874,-0.118,-0.73,-0.15,-1.14
2022-12-08 18:30:04.5710,-0.125,0.96,0.124,-2.13,0.25,-1.09
2022-12-08 18:30:04.5810,-0.112,1.218,0.945,-2.48,-0.61,-3.42
2022-12-08 18:30:04.5910,0.021,1.343,1.461,-3.75,-4.32,-16.61
2022-12-08 18:30:04.6030,0.169,1.21,0.895,-3.75,-4.32,-16.61
2022-12-08 18:30:04.6110,0.147,1.033,0.202,-5.09,-2.97,-11.05
2022-12-08 18:30:04.6210,0.081,0.847,-0.12,-4.78,-1.18,-4.2
2022-12-08 18:30:04.6310,0.106,0.707,-0.195,-4.03,0.69,-0.98
2022-12-08 18:30:04.6420,0.171,0.634,-0.168,-4.17,2.12,-0.18
2022-12-08 18:30:04.6510,0.247,0.674,-0.138,-4.67,2.89,-0.38
2022-12-08 18:30:04.6620,0.258,0.833,-0.12,-5.25,2.57,-0.62
2022-12-08 18:30:04.6710,0.221,1.001,-0.104,-5.16,1.08,-0.73
2022-12-08 18:30:04.6820,0.212,1.137,-0.085,-4.59,-0.49,-0.8
2022-12-08 18:30:04.6920,0.224,1.243,-0.082,-4.3,-1.76,-0.88
2022-12-08 18:30:04.7020,0.241,1.301,-0.093,-4.21,-2.73,-0.79
2022-12-08 18:30:04.7120,0.24,1.313,-0.117,-4.19,-3.24,-0.53
2022-12-08 18:30:04.7220,0.216,1.286,-0.15,-4.01,-3.3,-0.14
2022-12-08 18:30:04.7320,0.182,1.236,-0.176,-3.64,-2.99,0.35
2022-12-08 18:30:04.7420,0.183,1.172,-0.185,-3.18,-2.47,0.76
2022-12-08 18:30:04.7520,0.209,1.091,-0.196,-3.1,-1.81,0.99
2022-12-08 18:30:04.7620,0.241,1.01,-0.208,-3.26,-1.0,1.23
2022-12-08 18:30:04.7720,0.259,0.941,-0.202,-3.47,-0.18,1.45
2022-12-08 18:30:04.7820,0.276,0.904,-0.204,-3.55,0.51,1.48
2022-12-08 18:30:04.7920,0.322,0.875,-0.264,-3.6,0.89,1.58
2022-12-08 18:30:04.8020,0.397,0.859,-0.362,-3.92,1.18,2.22
2022-12-08 18:30:04.8120,0.384,0.854,-0.375,-4.49,1.36,3.21
2022-12-08 18:30:04.8220,0.341,0.865,-0.368,-4.18,1.41,3.32
2022-12-08 18:30:04.8320,0.319,0.876,-0.407,-3.58,1.31,3.21
2022-12-08 18:30:04.8420,0.246,0.885,-0.494,-3.18,1.2,3.53
2022-12-08 18:30:04.8520,0.204,0.889,-0.543,-2.28,1.1,4.29
2022-12-08 18:30:04.8620,0.203,0.898,-0.495,-1.71,1.06,4.63
2022-12-08 18:30:04.8720,0.198,0.924,-0.399,-1.53,0.95,4.0
2022-12-08 18:30:04.8820,0.151,0.981,-0.32,-1.32,0.66,2.86
2022-12-08 18:30:04.8920,0.1,1.038,-0.25,-0.7,0.07,1.87
2022-12-08 18:30:04.9020,0.064,1.092,-0.195,-0.04,-0.54,0.94
2022-12-08 18:30:04.9120,0.029,1.146,-0.137,0.46,-1.13,0.13
2022-12-08 18:30:04.9220,-0.017,1.18,-0.036,0.96,-1.74,-0.73
2022-12-08 18:30:04.9320,-0.235,1.212,1.138,1.55,-2.17,-2.03
2022-12-08 18:30:04.9420,-0.529,1.23,1.927,3.75,-2.54,-13.72
2022-12-08 18:30:04.9520,-0.264,1.084,0.331,6.65,-2.73,-21.5
2022-12-08 18:30:04.9620,-0.087,0.97,-0.183,4.09,-1.3,-5.85
2022-12-08 18:30:04.9720,-0.053,0.954,-0.304,2.47,-0.2,-0.82
2022-12-08 18:30:04.9820,-0.101,0.991,-0.29,2.3,-0.07,0.38
2022-12-08 18:30:04.9920,-0.191,1.038,-0.196,2.97,-0.47,0.27
2022-12-08 18:30:05.0030,-0.256,1.072,-0.135,4.03,-0.96,-0.61
2022-12-08 18:30:05.0120,-0.303,1.087,-0.109,4.83,-1.32,-1.14
2022-12-08 18:30:05.0230,-0.327,1.097,-0.114,5.41,-1.48,-1.35
2022-12-08 18:30:05.0330,-0.323,1.103,-0.157,5.72,-1.58,-1.25
2022-12-08 18:30:05.0430,-0.289,1.103,-0.233,5.72,-1.64,-0.78
2022-12-08 18:30:05.0530,-0.259,1.094,-0.319,5.4,-1.63,0.02
2022-12-08 18:30:05.0630,-0.245,1.066,-0.408,5.1,-1.53,0.93
2022-12-08 18:30:05.0730,-0.238,1.018,-0.48,4.98,-1.25,1.86
2022-12-08 18:30:05.0830,-0.253,1.007,-0.495,4.92,-0.76,2.61
2022-12-08 18:30:05.0930,-0.289,1.063,-0.433,5.44,-1.2,2.18
2022-12-08 18:30:05.1040,-0.331,1.107,-0.332,5.44,-1.2,2.18
2022-12-08 18:30:05.1130,-0.361,1.102,-0.24,5.85,-1.63,1.19
2022-12-08 18:30:05.1230,-0.402,1.066,-0.058,6.44,-1.19,-1.47
2022-12-08 18:30:05.1350,-0.541,1.066,0.502,6.44,-1.19,-1.47
2022-12-08 18:30:05.1430,-0.666,1.096,0.798,7.68,-1.14,-6.87
2022-12-08 18:30:05.1530,-0.592,1.086,0.396,8.75,-1.37,-9.65
2022-12-08 18:30:05.1630,-0.474,1.089,0.133,7.84,-1.21,-5.57
2022-12-08 18:30:05.1730,-0.4,1.143,0.01,6.48,-1.17,-2.86
2022-12-08 18:30:05.1830,-0.353,1.224,-0.095,5.55,-1.65,-1.53
2022-12-08 18:30:05.1930,-0.324,1.266,-0.138,4.88,-2.39,-0.38
2022-12-08 18:30:05.2030,-0.281,1.275,-0.129,4.37,-2.77,0.15
2022-12-08 18:30:05.2130,-0.237,1.294,-0.102,3.69,-2.81,0.17
2022-12-08 18:30:05.2230,-0.202,1.353,-0.09,3.0,-2.96,0.02
2022-12-08 18:30:05.2330,-0.155,1.446,-0.093,2.37,-3.52,0.02
2022-12-08 18:30:05.2430,-0.074,1.545,-0.11,1.62,-4.4,0.18
2022-12-08 18:30:05.2530,0.035,1.619,-0.149,0.54,-5.37,0.51
2022-12-08 18:30:05.2630,0.148,1.667,-0.205,-0.82,-6.1,1.05
2022-12-08 18:30:05.2730,0.263,1.677,-0.265,-2.19,-6.58,1.76
2022-12-08 18:30:05.2830,0.348,1.663,-0.306,-3.56,-6.69,2.49
2022-12-08 18:30:05.2930,0.386,1.621,-0.341,-4.6,-6.58,3.0
2022-12-08 18:30:05.3030,0.366,1.527,-0.324,-5.18,-6.2,3.37
2022-12-08 18:30:05.3130,0.363,1.423,-0.239,-5.2,-5.31,3.12
2022-12-08 18:30:05.3230,0.374,1.32,-0.125,-5.4,-4.33,2.14
2022-12-08 18:30:05.3330,0.417,1.223,-0.034,-5.74,-3.38,0.84
2022-12-08 18:30:05.3430,0.484,1.11,0.031,-6.4,-2.49,-0.25
2022-12-08 18:30:05.3530,0.477,0.986,0.228,-7.28,-1.45,-1.07
2022-12-08 18:30:05.3630,0.366,0.857,0.527,-7.41,-0.3,-3.13
2022-12-08 18:30:05.3730,0.383,0.793,0.288,-6.52,0.91,-6.11
2022-12-08 18:30:05.3830,0.438,0.753,-0.012,-6.87,1.47,-3.78
2022-12-08 18:30:05.3930,0.442,0.713,-0.114,-7.57,1.81,-0.85
2022-12-08 18:30:05.4030,0.411,0.686,-0.148,-7.74,2.15,0.15
2022-12-08 18:30:05.4130,0.339,0.65,-0.137,-7.54,2.37,0.46
2022-12-08 18:30:05.4240,0.261,0.606,-0.07,-6.93,2.69,0.31
2022-12-08 18:30:05.4340,0.193,0.561,-0.015,-6.24,3.09,-0.39
2022-12-08 18:30:05.4440,0.162,0.516,-0.017,-5.63,3.5,-0.98
2022-12-08 18:30:05.4540,0.203,0.488,-0.032,-5.39,3.9,-1.01
2022-12-08 18:30:05.4640,0.302,0.477,-0.023,-5.83,4.16,-0.93
2022-12-08 18:30:05.4740,0.41,0.499,0.009,-6.8,4.25,-1.09
2022-12-08 18:30:05.4840,0.485,0.525,0.018,-7.86,4.02,-1.48
2022-12-08 18:30:05.4940,0.522,0.532,-0.02,-8.57,3.77,-1.64
2022-12-08 18:30:05.5040,0.527,0.528,-0.059,-8.88,3.7,-1.34
2022-12-08 18:30:05.5140,0.515,0.517,-0.063,-8.86,3.76,-1.04
2022-12-08 18:30:05.5240,0.495,0.521,-0.016,-8.65,3.89,-1.08
2022-12-08 18:30:05.5340,0.46,0.546,0.075,-8.33,3.89,-1.62
2022-12-08 18:30:05.5440,0.366,0.613,0.199,-7.84,3.68,-2.57
2022-12-08 18:30:05.5540,0.156,0.749,0.263,-6.76,3.08,-3.8
2022-12-08 18:30:05.5640,-0.195,0.948,0.148,-4.55,1.8,-4.42
2022-12-08 18:30:05.5740,-0.542,1.161,-0.228,-0.96,-0.1,-3.23
2022-12-08 18:30:05.5840,-0.777,1.414,-0.715,2.52,-2.15,0.52
2022-12-08 18:30:05.5940,-1.028,1.65,-0.864,4.84,-4.61,5.35
2022-12-08 18:30:05.6040,-1.451,1.858,-0.743,7.24,-6.94,6.85
2022-12-08 18:30:05.6140,-2.005,1.995,-0.57,11.25,-9.04,5.64
2022-12-08 18:30:05.6240,-2.418,1.858,-0.44,16.44,-10.47,3.88
2022-12-08 18:30:05.6350,-2.409,1.258,-0.364,20.16,-9.27,2.52
2022-12-08 18:30:05.6440,-1.684,0.475,-0.303,19.78,-3.52,1.69
2022-12-08 18:30:05.6540,-1.273,0.087,-0.24,12.57,4.11,1.03
2022-12-08 18:30:05.6640,-1.25,0.36,-0.234,8.63,7.94,0.36
2022-12-08 18:30:05.6740,-1.148,0.744,-0.195,8.56,5.31,0.22
2022-12-08 18:30:05.6840,-0.984,0.932,-0.148,7.7,1.58,-0.27
2022-12-08 18:30:05.6940,-0.795,1.079,-0.122,6.18,-0.25,-0.83
2022-12-08 18:30:05.7040,-0.56,1.263,0.135,4.36,-1.71,-1.14
2022-12-08 18:30:05.7140,-0.224,1.483,0.611,2.04,-3.51,-3.64
2022-12-08 18:30:05.7240,0.152,1.573,0.764,-1.27,-5.64,-8.18
2022-12-08 18:30:05.7340,0.372,1.42,0.537,-4.92,-6.48,-9.59
2022-12-08 18:30:05.7440,0.435,1.163,0.44,-7.01,-4.97,-7.4
2022-12-08 18:30:05.7540,0.425,0.951,0.251,-7.56,-2.44,-6.52
2022-12-08 18:30:05.7640,0.398,0.819,0.01,-7.4,-0.34,-4.69
2022-12-08 18:30:05.7740,0.42,0.786,-0.126,-7.05,0.98,-2.33
2022-12-08 18:30:05.7840,0.444,0.819,-0.131,-7.16,1.35,-0.98
2022-12-08 18:30:05.7940,0.402,0.927,-0.093,-7.25,1.07,-0.91
2022-12-08 18:30:05.8040,0.348,1.074,-0.074,-6.68,0.08,-1.25
2022-12-08 18:30:05.8140,0.312,1.189,-0.057,-5.99,-1.3,-1.37
2022-12-08 18:30:05.8240,0.322,1.233,-0.065,-5.5,-2.38,-1.45
2022-12-08 18:30:05.8340,0.333,1.213,-0.075,-5.46,-2.75,-1.26
2022-12-08 18:30:05.8440,0.371,1.157,-0.078,-5.45,-2.51,-1.06
2022-12-08 18:30:05.8550,0.4,1.082,-0.082,-5.72,-1.91,-0.92
2022-12-08 18:30:05.8650,0.418,1.009,-0.074,-5.89,-1.14,-0.8
2022-12-08 18:30:05.8750,0.381,0.971,-0.056,-5.94,-0.38,-0.79
2022-12-08 18:30:05.8840,0.319,0.962,-0.036,-5.42,0.03,-0.89
2022-12-08 18:30:05.8950,0.275,0.961,-0.013,-4.66,0.15,-1.02
2022-12-08 18:30:05.9050,0.248,0.972,0.005,-4.07,0.19,-1.16
2022-12-08 18:30:05.9150,0.24,0.987,-0.007,-3.64,0.13,-1.23
2022-12-08 18:30:05.9250,0.209,1.009,-0.062,-3.4,0.01,-1.0
2022-12-08 18:30:05.9370,0.165,1.027,-0.124,-2.95,-0.18,-0.33
2022-12-08 18:30:05.9450,0.138,1.026,-0.176,-2.37,-0.34,0.41
2022-12-08 18:30:05.9550,0.107,1.018,-0.228,-1.97,-0.3,1.06
2022-12-08 18:30:05.9650,0.099,1.007,-0.273,-1.55,-0.21,1.68
2022-12-08 18:30:05.9750,0.082,1.001,-0.324,-1.33,-0.09,2.21
2022-12-08 18:30:05.9850,0.038,0.992,-0.386,-1.04,-0.03,2.78
2022-12-08 18:30:05.9950,-0.032,0.98,-0.456,-0.48,0.07,3.41
2022-12-08 18:30:06.0050,-0.078,0.98,-0.499,0.32,0.18,4.07
2022-12-08 18:30:06.0150,-0.111,0.979,-0.507,0.88,0.18,4.41
2022-12-08 18:30:06.0250,-0.125,0.975,-0.467,1.31,0.18,4.35
2022-12-08 18:30:06.0350,-0.115,0.976,-0.394,1.55,0.2,3.78
2022-12-08 18:30:06.0450,-0.125,0.984,-0.316,1.57,0.17,2.85
2022-12-08 18:30:06.0550,-0.16,0.995,-0.246,1.8,0.06,1.87
2022-12-08 18:30:06.0650,-0.188,0.997,-0.188,2.28,-0.09,0.97
2022-12-08 18:30:06.0750,-0.2,0.992,-0.139,2.72,-0.15,0.22
2022-12-08 18:30:06.0850,-0.204,0.987,-0.098,3.01,-0.14,-0.42
2022-12-08 18:30:06.0950,-0.206,0.981,-0.068,3.23,-0.15,-0.95
2022-12-08 18:30:06.1050,-0.196,0.966,-0.044,3.43,-0.13,-1.35
2022-12-08 18:30:06.1150,-0.178,0.941,-0.025,3.51,-0.03,-1.65
2022-12-08 18:30:06.1250,-0.166,0.921,-0.006,3.5,0.18,-1.88
2022-12-08 18:30:06.1350,-0.179,0.924,0.132,3.55,0.33,-2.09
2022-12-08 18:30:06.1450,-0.379,0.99,1.175,3.84,0.27,-3.45
2022-12-08 18:30:06.1550,-0.628,1.034,1.108,5.9,-0.39,-13.63
2022-12-08 18:30:06.1650,-0.454,1.002,0.085,8.4,-0.83,-12.94
2022-12-08 18:30:06.1750,-0.34,1.045,-0.166,6.74,-0.52,-2.9
2022-12-08 18:30:06.1850,-0.356,1.117,-0.221,5.67,-0.96,-0.44
2022-12-08 18:30:06.1950,-0.406,1.162,-0.279,5.86,-1.67,0.12
2022-12-08 18:30:06.2050,-0.458,1.155,-0.34,6.37,-2.1,0.73
2022-12-08 18:30:06.2150,-0.493,1.126,-0.403,6.89,-2.02,1.4
2022-12-08 18:30:06.2250,-0.531,1.123,-0.453,7.22,-1.72,2.09
2022-12-08 18:30:06.2370,-0.567,1.127,-0.456,7.57,-1.67,2.68
2022-12-08 18:30:06.2450,-0.594,1.102,-0.407,7.87,-1.67,2.82
2022-12-08 18:30:06.2550,-0.621,1.056,-0.332,8.05,-1.39,2.44
2022-12-08 18:30:06.2650,-0.641,1.027,-0.247,8.18,-0.89,1.81
2022-12-08 18:30:06.2760,-0.665,1.04,-0.158,8.21,-0.56,1.07
2022-12-08 18:30:06.2850,-0.702,1.096,-0.036,8.22,-0.63,0.28
2022-12-08 18:30:06.2960,-0.839,1.189,0.502,8.33,-1.12,-0.83
2022-12-08 18:30:06.3060,-0.847,1.333,0.663,9.38,-1.98,-5.96
2022-12-08 18:30:06.3160,-0.643,1.399,0.127,6.83,-3.97,-2.06
2022-12-08 18:30:06.3280,-0.494,1.375,0.027,5.04,-3.72,-1.02
2022-12-08 18:30:06.3380,-0.373,1.404,0.02,5.04,-3.72,-1.02
2022-12-08 18:30:06.3460,-0.241,1.479,-0.003,3.52,-3.99,-0.9
2022-12-08 18:30:06.3560,-0.113,1.574,-0.046,1.9,-4.73,-0.59
2022-12-08 18:30:06.3660,-0.01,1.668,-0.13,0.34,-5.68,-0.07
2022-12-08 18:30:06.3760,0.078,1.724,-0.262,-0.95,-6.62,0.86
2022-12-08 18:30:06.3880,0.195,1.764,-0.38,-3.42,-7.62,3.54
2022-12-08 18:30:06.3980,0.321,1.79,-0.428,-3.42,-7.62,3.54
2022-12-08 18:30:06.4060,0.406,1.774,-0.431,-4.86,-7.9,4.1
2022-12-08 18:30:06.4160,0.432,1.715,-0.446,-5.86,-7.78,4.15
2022-12-08 18:30:06.4260,0.461,1.612,-0.436,-6.72,-6.25,4.12
2022-12-08 18:30:06.4380,0.48,1.464,-0.389,-6.72,-6.25,4.12
2022-12-08 18:30:06.4460,0.514,1.297,-0.339,-7.08,-4.85,3.54
2022-12-08 18:30:06.4560,0.532,1.097,-0.302,-7.59,-3.27,2.89
2022-12-08 18:30:06.4660,0.556,0.937,-0.183,-7.95,-1.36,2.33
2022-12-08 18:30:06.4760,0.592,0.845,-0.054,-8.37,0.13,0.94
2022-12-08 18:30:06.4860,0.621,0.774,0.029,-8.89,0.96,-0.52
2022-12-08 18:30:06.4960,0.576,0.69,0.164,-9.34,1.59,-1.48
2022-12-08 18:30:06.5060,0.484,0.608,0.322,-9.05,2.34,-2.89
2022-12-08 18:30:06.5160,0.422,0.582,0.286,-8.3,3.09,-4.46
2022-12-08 18:30:06.5280,0.369,0.591,0.165,-7.81,3.29,-4.1
2022-12-08 18:30:06.5360,0.291,0.629,0.111,-7.39,3.16,-2.92
2022-12-08 18:30:06.5460,0.202,0.687,0.11,-6.7,2.75,-2.43
2022-12-08 18:30:06.5560,0.119,0.724,0.119,-5.86,2.16,-2.49
2022-12-08 18:30:06.5660,0.073,0.723,0.148,-5.07,1.77,-2.66
2022-12-08 18:30:06.5760,0.116,0.686,0.194,-4.63,1.76,-3.03
2022-12-08 18:30:06.5860,0.244,0.664,0.211,-5.05,2.11,-3.56
2022-12-08 18:30:06.5960,0.373,0.657,0.168,-6.29,2.32,-3.81
2022-12-08 18:30:06.6060,0.464,0.654,0.092,-7.53,2.38,-3.47
2022-12-08 18:30:06.6160,0.503,0.644,0.029,-8.37,2.42,-2.8
2022-12-08 18:30:06.6260,0.495,0.633,-0.01,-8.68,2.52,-2.27
2022-12-08 18:30:06.6360,0.465,0.634,-0.014,-8.52,2.65,-1.97
2022-12-08 18:30:06.6460,0.409,0.654,0.018,-8.11,2.67,-2.02
2022-12-08 18:30:06.6560,0.281,0.695,0.053,-7.42,2.51,-2.41
2022-12-08 18:30:06.6690,0.054,0.783,0.08,-6.01,2.14,-2.82
2022-12-08 18:30:06.6760,-0.214,0.871,-0.085,-3.62,1.32,-3.13
2022-12-08 18:30:06.6860,-0.434,0.996,-0.445,-0.86,0.5,-1.56
2022-12-08 18:30:06.6960,-0.645,1.172,-0.718,1.39,-0.7,1.96
2022-12-08 18:30:06.7070,-0.873,1.365,-0.776,3.46,-2.42,4.65
2022-12-08 18:30:06.7160,-1.204,1.577,-0.718,5.6,-4.33,5.27
2022-12-08 18:30:06.7270,-1.731,1.706,-0.573,13.55,-7.81,3.42
2022-12-08 18:30:06.7390,-2.135,1.616,-0.39,13.55,-7.81,3.42
2022-12-08 18:30:06.7470,-2.002,1.093,-0.282,17.21,-7.04,1.69
2022-12-08 18:30:06.7570,-1.513,0.429,-0.307,15.7,-1.99,0.69
2022-12-08 18:30:06.7670,-1.451,-0.009,-0.325,10.89,4.53,0.94
2022-12-08 18:30:06.7770,-1.458,-0.053,-0.319,10.66,9.37,0.97
2022-12-08 18:30:06.7890,-1.115,0.156,-0.277,10.66,9.37,0.97
2022-12-08 18:30:06.7970,-0.72,0.458,-0.208,7.46,7.36,0.48
2022-12-08 18:30:06.8070,-0.481,0.766,-0.136,3.7,4.43,-0.26
2022-12-08 18:30:06.8170,-0.258,0.951,-0.074,1.45,1.43,-1.01
2022-12-08 18:30:06.8270,-0.061,1.175,-0.017,-0.65,-0.36,-1.63
2022-12-08 18:30:06.8370,0.122,1.536,0.144,-2.48,-2.51,-2.19
2022-12-08 18:30:06.8470,0.229,1.981,0.399,-4.13,-6.01,-3.78
2022-12-08 18:30:06.8570,0.352,2.202,0.734,-5.0,-10.32,-6.3
2022-12-08 18:30:06.8670,0.38,1.963,0.633,-6.0,-12.42,-9.55
2022-12-08 18:30:06.8770,0.285,1.461,0.203,-6.14,-10.02,-8.48
2022-12-08 18:30:06.8870,0.189,1.051,-0.046,-5.14,-5.07,-4.2
2022-12-08 18:30:06.8970,0.156,0.826,-0.125,-4.18,-1.03,-1.72
2022-12-08 18:30:06.9070,0.191,0.691,-0.104,-3.88,1.18,-0.91
2022-12-08 18:30:06.9170,0.232,0.612,-0.041,-4.23,2.51,-1.07
2022-12-08 18:30:06.9270,0.262,0.588,-0.03,-4.64,3.29,-1.64
2022-12-08 18:30:06.9370,0.246,0.666,-0.041,-4.91,3.54,-1.71
2022-12-08 18:30:06.9470,0.19,0.822,-0.045,-4.7,2.8,-1.55
2022-12-08 18:30:06.9570,0.144,0.97,-0.057,-4.1,1.3,-1.43
2022-12-08 18:30:06.9670,0.116,1.085,-0.071,-3.58,-0.12,-1.23
2022-12-08 18:30:06.9770,0.101,1.162,-0.088,-3.25,-1.22,-0.97
2022-12-08 18:30:06.9870,0.092,1.203,-0.107,-3.03,-1.93,-0.69
2022-12-08 18:30:06.9970,0.072,1.213,-0.117,-2.87,-2.3,-0.37
2022-12-08 18:30:07.0070,0.057,1.19,-0.126,-2.59,-2.36,-0.15
2022-12-08 18:30:07.0170,0.042,1.136,-0.135,-2.35,-2.1,0.06
2022-12-08 18:30:07.0270,0.035,1.075,-0.138,-1.9218711729347706,-0.92,0.36
2022-12-08 18:30:07.0390,0.024,1.029,-0.152,-1.93,-0.92,0.36
2022-12-08 18:30:07.0470,0.029,0.992,-0.204,-1.71,-0.44,0.56
2022-12-08 18:30:07.0570,0.061,0.961,-0.266,-1.64,-0.06,1.12
2022-12-08 18:30:07.0670,0.113,0.949,-0.32,-1.84,0.27,1.75
2022-12-08 18:30:07.0770,0.16,0.953,-0.347,-2.22,0.39,2.26
2022-12-08 18:30:07.0870,0.191,0.961,-0.347,-2.54,0.37,2.48
2022-12-08 18:30:07.0970,0.223,0.961,-0.355,-2.7,0.29,2.42
2022-12-08 18:30:07.1070,0.233,0.96,-0.396,-2.85,0.29,2.42
2022-12-08 18:30:07.1170,0.231,0.962,-0.449,-2.78,0.31,2.74
2022-12-08 18:30:07.1280,0.198,0.959,-0.468,-2.57,0.29,3.16
2022-12-08 18:30:07.1380,0.144,0.956,-0.402,-2.06,0.31,3.26
2022-12-08 18:30:07.1480,0.098,0.946,-0.32,-1.36,0.32,2.53
2022-12-08 18:30:07.1570,0.08,0.932,-0.279,-0.73,0.41,1.65
2022-12-08 18:30:07.1680,0.062,0.931,-0.24,-0.4,0.53,1.18
2022-12-08 18:30:07.1780,0.048,0.929,-0.193,-0.07,0.52,0.73
2022-12-08 18:30:07.1880,0.035,0.932,-0.149,0.22,0.52,0.2
2022-12-08 18:30:07.1980,0.019,0.936,-0.121,0.5,0.47,-0.32
2022-12-08 18:30:07.2080,-0.007,0.937,-0.094,0.81,0.39,-0.72
2022-12-08 18:30:07.2180,-0.056,0.955,-0.017,1.22,0.32,-1.16
2022-12-08 18:30:07.2280,-0.139,0.979,0.19,2.73,-0.23,-4.39
2022-12-08 18:30:07.2400,-0.346,0.951,0.844,2.73,-0.23,-4.39
2022-12-08 18:30:07.2480,-0.377,0.895,0.763,4.77,0.01,-10.93
2022-12-08 18:30:07.2580,-0.21,0.848,0.168,5.04,0.56,-10.18
2022-12-08 18:30:07.2680,-0.156,0.901,-0.084,3.39,1.02,-4.35
2022-12-08 18:30:07.2780,-0.215,1.021,-0.19,2.9,0.48,-1.9
2022-12-08 18:30:07.2880,-0.275,1.125,-0.218,3.56,-0.71,-0.87
2022-12-08 18:30:07.2980,-0.321,1.171,-0.189,4.25,-1.75,-0.6
2022-12-08 18:30:07.3080,-0.36,1.15,-0.174,4.82,-2.22,-0.86
2022-12-08 18:30:07.3180,-0.39,1.091,-0.173,5.33,-2.02,-0.96
2022-12-08 18:30:07.3280,-0.419,1.042,-0.194,5.72,-1.43,-0.88
2022-12-08 18:30:07.3380,-0.45,1.03,-0.24,6.07,-0.94,-0.58
2022-12-08 18:30:07.3480,-0.476,1.055,-0.3,6.41,-0.81,-0.02
2022-12-08 18:30:07.3580,-0.486,1.098,-0.347,6.66,-1.02,0.66
2022-12-08 18:30:07.3680,-0.494,1.14,-0.372,6.72,-1.42,1.21
2022-12-08 18:30:07.3780,-0.522,1.162,-0.374,6.74,-1.81,1.51
2022-12-08 18:30:07.3880,-0.559,1.175,-0.335,6.92,-1.99,1.58
2022-12-08 18:30:07.3980,-0.592,1.187,-0.264,7.16,-2.09,1.22
2022-12-08 18:30:07.4080,-0.618,1.189,-0.178,7.32,-2.17,0.55
2022-12-08 18:30:07.4180,-0.669,1.174,0.078,7.39,-2.16,-0.27
2022-12-08 18:30:07.4280,-0.946,1.192,1.419,7.68,-1.97,-2.7
2022-12-08 18:30:07.4380,-0.814,1.199,0.724,10.17,-2.08,-15.64
2022-12-08 18:30:07.4480,-0.555,1.16,-0.19,8.64,-2.1,-8.61
2022-12-08 18:30:07.4580,-0.488,1.16,-0.092,5.86,-1.67,0.5
2022-12-08 18:30:07.4680,-0.443,1.198,-0.037,4.93,-1.66,-0.37
2022-12-08 18:30:07.4780,-0.392,1.27,-0.029,4.2,-2.02,-0.82
2022-12-08 18:30:07.4880,-0.329,1.374,-0.049,3.39,-2.73,-0.8
2022-12-08 18:30:07.4980,-0.251,1.489,-0.095,2.47,-3.75,-0.49
2022-12-08 18:30:07.5080,-0.159,1.593,-0.159,1.39,-4.9,0.09
2022-12-08 18:30:07.5180,-0.063,1.666,-0.249,0.2,-5.94,0.85
2022-12-08 18:30:07.5280,0.037,1.701,-0.345,-1.01,-6.69,1.87
2022-12-08 18:30:07.5380,0.138,1.719,-0.398,-2.23,-7.07,2.92
2022-12-08 18:30:07.5490,0.21,1.727,-0.394,-3.41,-7.28,3.52
2022-12-08 18:30:07.5580,0.248,1.698,-0.378,-4.29,-7.4,3.52
2022-12-08 18:30:07.5690,0.253,1.608,-0.339,-4.81,-7.15,3.36
2022-12-08 18:30:07.5790,0.269,1.482,-0.297,-5.0,-6.31,2.94
2022-12-08 18:30:07.5890,0.287,1.339,-0.252,-5.3,-5.11,2.45
2022-12-08 18:30:07.5990,0.319,1.192,-0.194,-5.62,-3.76,1.9
2022-12-08 18:30:07.6090,0.351,1.026,-0.142,-6.09,-2.37,1.22
2022-12-08 18:30:07.6190,0.374,0.869,-0.088,-6.57,-0.81,0.57
2022-12-08 18:30:07.6290,0.423,0.791,-0.009,-6.97,0.66,-0.12
2022-12-08 18:30:07.6390,0.458,0.762,0.087,-7.62,1.34,-1.05
2022-12-08 18:30:07.6490,0.414,0.714,0.38,-8.13,1.55,-2.12
2022-12-08 18:30:07.6590,0.345,0.649,0.563,-7.86,1.94,-5.04
2022-12-08 18:30:07.6690,0.358,0.629,0.326,-7.33,2.52,-6.81
2022-12-08 18:30:07.6790,0.355,0.61,0.082,-7.57,2.67,-4.44
2022-12-08 18:30:07.6890,0.344,0.582,-0.059,-7.62,2.83,-2.03
2022-12-08 18:30:07.6990,0.326,0.553,-0.117,-7.57,3.07,-0.67
2022-12-08 18:30:07.7090,0.301,0.527,-0.106,-7.41,3.34,-0.16
2022-12-08 18:30:07.7190,0.313,0.506,-0.03,-7.17,3.58,-0.34
2022-12-08 18:30:07.7290,0.365,0.502,0.04,-7.28,3.816804515719414,-1.91
2022-12-08 18:30:07.7410,0.414,0.513,0.064,-7.77,3.81,-1.91
2022-12-08 18:30:07.7490,0.439,0.519,0.064,-8.22,3.71,-2.21
2022-12-08 18:30:07.7590,0.427,0.526,0.083,-8.41,3.67,-2.27
2022-12-08 18:30:07.7690,0.375,0.557,0.125,-8.23,3.62,-2.51
2022-12-08 18:30:07.7790,0.283,0.613,0.158,-7.64,3.34,-2.97
2022-12-08 18:30:07.7890,0.17,0.683,0.129,-6.64,2.82,-3.32
2022-12-08 18:30:07.7990,-0.001,0.76,0.112,-5.42,2.17,-3.06
2022-12-08 18:30:07.8090,-0.261,0.858,0.084,-3.63,1.46,-2.91
2022-12-08 18:30:07.8190,-0.511,0.982,-0.139,-0.99,0.55,-2.62
2022-12-08 18:30:07.8290,-0.73,1.145,-0.552,1.51,-0.64,-0.37
2022-12-08 18:30:07.8390,-0.919,1.323,-0.777,3.63,-2.23,3.78
2022-12-08 18:30:07.8490,-1.16,1.498,-0.698,5.37,-4.0,6.13
2022-12-08 18:30:07.8590,-1.566,1.631,-0.537,7.57,-5.76,5.49
2022-12-08 18:30:07.8690,-1.957,1.557,-0.468,11.32,-7.16,3.98
2022-12-08 18:30:07.8790,-1.872,1.071,-0.443,14.96,-6.52,3.29
2022-12-08 18:30:07.8890,-1.674,0.498,-0.444,14.07,-1.79,2.98
2022-12-08 18:30:07.8990,-1.652,0.139,-0.408,12.22,3.85,2.88
2022-12-08 18:30:07.9090,-1.62,0.286,-0.363,12.15,7.42,2.39
2022-12-08 18:30:07.9190,-1.315,0.691,-0.262,11.96,6.01,1.78
2022-12-08 18:30:07.9290,-0.989,1.055,-0.165,9.04,2.02,0.62
2022-12-08 18:30:07.9390,-0.728,1.322,-0.077,5.86,-1.57,-0.46
2022-12-08 18:30:07.9490,-0.529,1.573,0.085,3.28,-4.23,-1.43
2022-12-08 18:30:07.9590,-0.402,1.748,0.208,1.29,-6.72,-3.08
2022-12-08 18:30:07.9700,-0.216,1.621,0.26,-0.01,-8.45,-4.25
2022-12-08 18:30:07.9800,0.046,1.319,0.327,-1.91,-7.2,-4.61
2022-12-08 18:30:07.9900,0.284,0.967,0.287,-4.52,-4.21,-5.06
2022-12-08 18:30:08.0000,0.407,0.727,0.419,-6.86,-0.74,-4.56
2022-12-08 18:30:08.0100,0.349,0.674,0.41,-8.04,1.63,-5.88
2022-12-08 18:30:08.0200,0.248,0.651,0.154,-7.43,2.16,-5.81
2022-12-08 18:30:08.0300,0.234,0.665,-0.047,-6.39,2.41,-3.29
2022-12-08 18:30:08.0400,0.228,0.766,-0.145,-6.17,2.31,-1.31
2022-12-08 18:30:08.0500,0.172,0.933,-0.168,-6.01,1.37,-0.34
2022-12-08 18:30:08.0600,0.075,1.123,-0.158,-5.32,-0.21,-0.1
2022-12-08 18:30:08.0700,0.01,1.255,-0.123,-4.24,-2.02,-0.19
2022-12-08 18:30:08.0800,-0.011,1.3,-0.094,-3.48,-3.26,-0.48
2022-12-08 18:30:08.0900,0.02,1.276,-0.093,-3.16,-3.65,-0.7
2022-12-08 18:30:08.1000,0.082,1.207,-0.107,-3.37,-3.36,-0.62
2022-12-08 18:30:08.1100,0.115,1.112,-0.117,-3.87,-2.64,-0.39
2022-12-08 18:30:08.1200,0.108,1.015,-0.115,-4.08,-1.66,-0.2
2022-12-08 18:30:08.1300,0.102,0.951,-0.103,-3.89,-0.66,-0.15
2022-12-08 18:30:08.1400,0.082,0.922,-0.09,-3.4,0.34,-0.24
2022-12-08 18:30:08.1510,0.052,0.922,-0.084,-3.4,0.34,-0.24
2022-12-08 18:30:08.1600,0.029,0.951,-0.085,-2.97,0.39,-0.22
2022-12-08 18:30:08.1700,0.018,0.997,-0.089,-2.61,0.15,-0.11
2022-12-08 18:30:08.1800,0.0,1.041,-0.1,-2.37,-0.26,0.02
2022-12-08 18:30:08.1900,-0.014,1.067,-0.134,-2.07,-0.65,0.24
2022-12-08 18:30:08.2000,-0.014,1.07,-0.183,-1.79,-0.87,0.67
2022-12-08 18:30:08.2100,-0.024,1.055,-0.231,-1.65,-0.87,1.26
2022-12-08 18:30:08.2200,-0.022,1.021,-0.285,-1.4,-0.69,1.81
2022-12-08 18:30:08.2300,-0.009,0.974,-0.358,-1.26,-0.34,2.4
2022-12-08 18:30:08.2400,-0.023,0.927,-0.397,-1.23,0.15,3.14
2022-12-08 18:30:08.2500,-0.025,0.883,-0.438,-0.93,0.64,3.52
2022-12-08 18:30:08.2600,-0.036,0.84,-0.489,-0.74,1.09,3.86
2022-12-08 18:30:08.2700,-0.055,0.822,-0.507,-0.46,1.51,4.26
2022-12-08 18:30:08.2800,-0.082,0.843,-0.468,-0.1,1.7,4.3
2022-12-08 18:30:08.2900,-0.109,0.894,-0.379,0.33,1.48,3.74
2022-12-08 18:30:08.3000,-0.136,0.95,-0.282,0.76,0.97,2.68
2022-12-08 18:30:08.3100,-0.153,0.988,-0.201,1.18,0.4,1.54
2022-12-08 18:30:08.3200,-0.159,1.008,-0.145,1.51,0.01,0.57
2022-12-08 18:30:08.3300,-0.16,1.013,-0.104,1.73,-0.21,-0.14
2022-12-08 18:30:08.3400,-0.161,1.006,-0.061,2.05,-0.25,-1.23
2022-12-08 18:30:08.3540,-0.15,0.994,-0.009,2.05,-0.25,-1.23
2022-12-08 18:30:08.3600,-0.08,0.974,0.429,2.09,-0.15,-1.84
2022-12-08 18:30:08.3700,0.02,0.968,1.135,1.53,0.02,-6.18
2022-12-08 18:30:08.3810,-0.049,0.955,0.499,0.66,0.07,-13.11
2022-12-08 18:30:08.3900,-0.12,0.915,-0.023,1.45,0.18,-6.91
2022-12-08 18:30:08.4010,-0.146,0.934,-0.097,2.26,0.54,-1.87
2022-12-08 18:30:08.4110,-0.2,0.983,-0.138,3.31,-0.19,-0.85
2022-12-08 18:30:08.4230,-0.29,1.034,-0.158,3.31,-0.19,-0.85
2022-12-08 18:30:08.4310,-0.357,1.076,-0.166,4.33,-0.71,-0.64
2022-12-08 18:30:08.4410,-0.406,1.099,-0.191,5.12,-1.13,-0.52
2022-12-08 18:30:08.4510,-0.436,1.089,-0.22,5.7,-1.36,-0.21
2022-12-08 18:30:08.4610,-0.444,1.05,-0.251,6.07,-1.26,0.15
2022-12-08 18:30:08.4710,-0.431,1.01,-0.282,6.18,-0.87,0.54
2022-12-08 18:30:08.4810,-0.417,0.995,-0.306,6.07,-0.46,0.9
2022-12-08 18:30:08.4910,-0.423,1.03,-0.332,5.93,-0.3,1.19
2022-12-08 18:30:08.5010,-0.448,1.105,-0.348,6.2,-1.37,1.66
2022-12-08 18:30:08.5140,-0.476,1.184,-0.341,6.2,-1.37,1.66
2022-12-08 18:30:08.5210,-0.506,1.215,-0.307,6.44,-2.13,1.61
2022-12-08 18:30:08.5310,-0.525,1.182,-0.254,6.79,-2.07,0.81
2022-12-08 18:30:08.5430,-0.549,1.14,-0.194,6.79,-2.07,0.81
2022-12-08 18:30:08.5510,-0.598,1.119,-0.108,6.92,-1.64,0.24
2022-12-08 18:30:08.5610,-0.745,1.088,0.247,7.26,-1.41,-0.56
2022-12-08 18:30:08.5710,-0.954,1.058,0.829,8.53,-1.06,-3.92
2022-12-08 18:30:08.5810,-0.788,1.015,0.379,10.36,-0.71,-9.42
2022-12-08 18:30:08.5910,-0.585,1.042,-0.116,8.49,-0.25,-4.8
2022-12-08 18:30:08.6010,-0.565,1.127,-0.145,6.27,-0.47,0.2
2022-12-08 18:30:08.6110,-0.53,1.182,-0.093,5.82,-1.29,0.56
2022-12-08 18:30:08.6210,-0.464,1.253,-0.073,5.21,-1.83,0.12
2022-12-08 18:30:08.6310,-0.406,1.356,-0.083,4.28,-2.51,0.0
2022-12-08 18:30:08.6410,-0.336,1.465,-0.117,3.4,-3.53,0.18
2022-12-08 18:30:08.6510,-0.239,1.55,-0.172,2.4,-4.62,0.61
2022-12-08 18:30:08.6610,-0.13,1.606,-0.248,1.15,-5.48,1.26
2022-12-08 18:30:08.6710,-0.005,1.636,-0.348,-0.2,-6.07,2.13
2022-12-08 18:30:08.6810,0.124,1.636,-0.432,-1.69,-6.4,3.21
2022-12-08 18:30:08.6910,0.212,1.632,-0.491,-3.19,-6.44,4.13
2022-12-08 18:30:08.7010,0.257,1.607,-0.509,-4.26,-6.45,4.77
2022-12-08 18:30:08.7110,0.248,1.53,-0.493,-4.87,-6.24,4.97
2022-12-08 18:30:08.7210,0.247,1.429,-0.45,-4.95,-5.54,4.8
2022-12-08 18:30:08.7310,0.274,1.327,-0.417,-5.09,-4.59,4.32
2022-12-08 18:30:08.7410,0.303,1.218,-0.411,-5.52,-3.63,3.92
2022-12-08 18:30:08.7510,0.335,1.107,-0.367,-5.95,-2.61,3.76
2022-12-08 18:30:08.7610,0.382,1.007,-0.263,-6.42,-1.57,3.22
2022-12-08 18:30:08.7710,0.413,0.914,-0.168,-7.03,-0.65,2.1
2022-12-08 18:30:08.7810,0.436,0.837,-0.151,-7.47,0.2,1.05
2022-12-08 18:30:08.7910,0.421,0.752,-0.121,-7.83,0.9,0.77
2022-12-08 18:30:08.8010,0.401,0.699,-0.043,-7.8,1.68,0.36
2022-12-08 18:30:08.8110,0.336,0.682,0.166,-7.7,2.15,-0.53
2022-12-08 18:30:08.8220,0.151,0.68,0.584,-7.15,2.27,-2.66
2022-12-08 18:30:08.8310,0.11,0.703,0.443,-5.43,2.25,-6.77
2022-12-08 18:30:08.8420,0.157,0.709,0.213,-5.13,1.98,-5.37
2022-12-08 18:30:08.8520,0.182,0.687,0.101,-5.67,1.88,-3.12
2022-12-08 18:30:08.8620,0.207,0.659,0.015,-5.98,2.07,-2.05
2022-12-08 18:30:08.8720,0.251,0.646,-0.022,-6.26,2.31,-1.27
2022-12-08 18:30:08.8820,0.318,0.649,0.008,-6.71,2.42,-0.99
2022-12-08 18:30:08.8920,0.38,0.649,0.061,-7.36,2.38,-1.38
2022-12-08 18:30:08.9020,0.412,0.651,0.095,-7.95,2.37,-1.98
2022-12-08 18:30:08.9120,0.406,0.657,0.108,-8.23,2.36,-2.38
2022-12-08 18:30:08.9220,0.371,0.662,0.122,-8.13,2.32,-2.56
2022-12-08 18:30:08.9320,0.311,0.684,0.119,-7.72,2.29,-2.74
2022-12-08 18:30:08.9420,0.239,0.726,0.063,-7.06,2.1,-2.74
2022-12-08 18:30:08.9520,0.168,0.779,-0.036,-6.27,1.72,-2.22
2022-12-08 18:30:08.9620,0.091,0.836,-0.142,-5.48,1.24,-1.3
2022-12-08 18:30:08.9720,-0.069,0.854,-0.127,-4.6,0.72,-0.34
2022-12-08 18:30:08.9820,-0.295,0.871,-0.206,-2.9,0.57,-0.59
2022-12-08 18:30:08.9920,-0.463,0.942,-0.514,-0.55,0.43,0.1
2022-12-08 18:30:09.0020,-0.606,1.045,-0.752,1.16,-0.25,3.07
2022-12-08 18:30:09.0120,-0.802,1.155,-0.759,2.56,-1.26,5.42
2022-12-08 18:30:09.0220,-1.073,1.279,-0.736,4.39,-2.36,5.55
2022-12-08 18:30:09.0320,-1.468,1.345,-0.648,6.89,-3.61,5.44
2022-12-08 18:30:09.0420,-1.788,1.185,-0.418,10.59,-4.3,4.73
2022-12-08 18:30:09.0520,-1.793,0.816,-0.27,13.65,-2.76,2.55
2022-12-08 18:30:09.0620,-1.774,0.458,-0.276,13.77,0.89,1.07
2022-12-08 18:30:09.0720,-1.817,0.337,-0.283,13.76,4.45,0.99
2022-12-08 18:30:09.0820,-1.749,0.353,-0.261,14.4,5.68,0.88
2022-12-08 18:30:09.0920,-1.446,0.558,-0.222,13.9,5.55,0.49
2022-12-08 18:30:09.1020,-1.091,0.931,-0.159,11.02,3.55,-0.02
2022-12-08 18:30:09.1120,-0.778,1.18,-0.052,7.54,-0.13,-0.72
2022-12-08 18:30:09.1220,-0.448,1.477,0.314,4.42,-2.6,-1.78
2022-12-08 18:30:09.1320,-0.338,1.788,0.579,1.1,-5.52,-5.3
2022-12-08 18:30:09.1420,-0.292,1.785,0.289,-0.05,-8.56,-7.74
2022-12-08 18:30:09.1520,-0.011,1.576,0.059,-0.59,-8.52,-4.73
2022-12-08 18:30:09.1620,0.389,1.264,0.618,-3.39,-6.5,-2.5
2022-12-08 18:30:09.1720,0.66,1.037,1.012,-7.32,-3.47,-8.09
2022-12-08 18:30:09.1820,0.456,0.841,0.302,-9.97,-1.24,-11.99
2022-12-08 18:30:09.1920,0.307,0.771,-0.096,-7.95,0.68,-5.02
2022-12-08 18:30:09.2020,0.329,0.818,-0.152,-6.45,1.4,-1.08
2022-12-08 18:30:09.2120,0.349,0.902,-0.168,-6.58,0.97,-0.5
2022-12-08 18:30:09.2220,0.303,1.028,-0.167,-6.67,0.2,-0.33
2022-12-08 18:30:09.2320,0.218,1.164,-0.132,-6.07,-0.99,-0.33
2022-12-08 18:30:09.2430,0.157,1.239,-0.134,-5.11,-2.27,-0.63
2022-12-08 18:30:09.2530,0.155,1.271,-0.146,-4.39,-2.95,-0.54
2022-12-08 18:30:09.2620,0.206,1.262,-0.158,-4.27,-3.22,-0.32
2022-12-08 18:30:09.2730,0.241,1.223,-0.164,-4.69,-3.09,-0.1
2022-12-08 18:30:09.2830,0.235,1.183,-0.154,-4.94,-2.66,0.07
2022-12-08 18:30:09.2930,0.209,1.159,-0.133,-4.78,-2.22,0.07
2022-12-08 18:30:09.3030,0.186,1.124,-0.118,-4.41,-1.94,-0.03
2022-12-08 18:30:09.3130,0.146,1.062,-0.108,-4.06,-1.56,-0.07
2022-12-08 18:30:09.3230,0.119,1.002,-0.084,-3.54,-0.91,-0.07
2022-12-08 18:30:09.3330,0.151,0.96,-0.081,-3.16,-0.28,-0.2
2022-12-08 18:30:09.3430,0.213,0.948,-0.131,-3.34,0.17,-0.12
2022-12-08 18:30:09.3530,0.243,0.951,-0.222,-3.81,0.32,0.46
2022-12-08 18:30:09.3630,0.244,0.938,-0.289,-3.95,0.33,1.45
2022-12-08 18:30:09.3730,0.241,0.924,-0.299,-3.79,0.49,2.17
2022-12-08 18:30:09.3830,0.196,0.946,-0.288,-3.57,0.64,2.3
2022-12-08 18:30:09.3930,0.157,0.96,-0.3,-2.94,0.45,2.19
2022-12-08 18:30:09.4030,0.14,0.952,-0.347,-2.38,0.33,2.29
2022-12-08 18:30:09.4130,0.113,0.938,-0.431,-2.02,0.42,2.71
2022-12-08 18:30:09.4230,0.046,0.946,-0.439,-1.58,0.56,3.47
2022-12-08 18:30:09.4330,-0.02,0.979,-0.379,0.08,0.15,2.73
2022-12-08 18:30:09.4450,-0.061,0.997,-0.303,0.08,0.15,2.73
2022-12-08 18:30:09.4530,-0.087,1.015,-0.231,0.65,-0.04,1.85
2022-12-08 18:30:09.4630,-0.127,1.024,-0.184,1.06,-0.24,1.01
2022-12-08 18:30:09.4730,-0.173,1.034,-0.144,1.61,-0.35,0.39
2022-12-08 18:30:09.4830,-0.208,1.048,-0.115,2.22,-0.48,-0.15
2022-12-08 18:30:09.4930,-0.254,1.047,-0.009,2.71,-0.66,-0.61
2022-12-08 18:30:09.5030,-0.523,1.01,1.007,3.3,-0.69,-1.84
2022-12-08 18:30:09.5130,-0.558,0.954,1.156,6.0,-0.36,-11.94
2022-12-08 18:30:09.5230,-0.269,0.835,0.209,6.36,0.16,-13.49
2022-12-08 18:30:09.5330,-0.131,0.778,-0.086,3.56,1.31,-4.32
2022-12-08 18:30:09.5430,-0.126,0.836,-0.116,2.28,1.83,-1.54
2022-12-08 18:30:09.5530,-0.201,0.937,-0.141,2.34,1.22,-1.34
2022-12-08 18:30:09.5630,-0.297,1.021,-0.142,3.23,0.21,-1.12
2022-12-08 18:30:09.5730,-0.341,1.068,-0.151,4.33,-0.63,-1.07
2022-12-08 18:30:09.5830,-0.357,1.071,-0.191,4.92,-1.09,-0.9
2022-12-08 18:30:09.5930,-0.367,1.043,-0.228,5.2,-1.12,-0.38
2022-12-08 18:30:09.6030,-0.368,1.009,-0.275,5.38,-0.83,0.12
2022-12-08 18:30:09.6130,-0.365,0.992,-0.339,5.46,-0.48,0.69
2022-12-08 18:30:09.6230,-0.368,0.988,-0.384,5.46,-0.29,1.42
2022-12-08 18:30:09.6330,-0.377,1.013,-0.425,5.51,-0.25,1.93
2022-12-08 18:30:09.6430,-0.394,1.08,-0.451,5.59,-0.48,2.36
2022-12-08 18:30:09.6530,-0.427,1.135,-0.452,5.73,-1.13,2.64
2022-12-08 18:30:09.6630,-0.471,1.139,-0.42,6.03,-1.67,2.66
2022-12-08 18:30:09.6730,-0.517,1.094,-0.358,6.4,-1.7,2.35
2022-12-08 18:30:09.6840,-0.558,1.047,-0.283,6.77,-1.24,1.73
2022-12-08 18:30:09.6930,-0.621,1.021,-0.14,7.06,-0.76,1.0
2022-12-08 18:30:09.7030,-0.883,1.027,0.598,7.51,-0.48,-0.38
2022-12-08 18:30:09.7140,-1.121,1.064,1.253,9.87,-0.48,-7.5
2022-12-08 18:30:09.7240,-0.789,1.087,0.298,11.95,-0.78,-13.71
2022-12-08 18:30:09.7340,-0.577,1.188,-0.208,8.44,-0.96,-4.17
2022-12-08 18:30:09.7440,-0.562,1.262,-0.165,6.09,-1.92,0.9
2022-12-08 18:30:09.7540,-0.51,1.285,-0.11,5.67,-2.63,0.54
2022-12-08 18:30:09.7640,-0.446,1.34,-0.089,4.86,-2.86,0.06
2022-12-08 18:30:09.7740,-0.397,1.434,-0.106,3.91,-3.39,-0.09
2022-12-08 18:30:09.7840,-0.335,1.539,-0.141,3.09,-4.33,0.16
2022-12-08 18:30:09.7960,-0.246,1.655,-0.192,2.14,-5.39,0.6
2022-12-08 18:30:09.8040,-0.139,1.757,-0.264,0.93,-6.56,1.2
2022-12-08 18:30:09.8140,-0.015,1.822,-0.331,-0.44,-7.61,2.01
2022-12-08 18:30:09.8240,0.117,1.848,-0.368,-1.95,-8.31,2.75
2022-12-08 18:30:09.8340,0.205,1.829,-0.37,-3.49,-8.62,3.18
2022-12-08 18:30:09.8440,0.237,1.746,-0.345,-4.57,-8.48,3.23
2022-12-08 18:30:09.8540,0.234,1.6,-0.296,-5.07,-7.72,2.95
2022-12-08 18:30:09.8640,0.244,1.435,-0.219,-5.21,-6.35,2.41
2022-12-08 18:30:09.8740,0.262,1.274,-0.161,-5.46,-4.78,1.57
2022-12-08 18:30:09.8840,0.272,1.095,-0.174,-5.78,-3.26,0.88
2022-12-08 18:30:09.8940,0.284,0.943,-0.124,-6.03,-1.57,0.83
2022-12-08 18:30:09.9040,0.318,0.904,0.014,-6.3,-0.16,0.13
2022-12-08 18:30:09.9140,0.34,0.896,0.159,-6.8,0.13,-1.43
2022-12-08 18:30:09.9240,0.303,0.839,0.371,-7.18,0.12,-3.02
2022-12-08 18:30:09.9340,0.311,0.765,0.403,-6.99,0.59,-5.17
2022-12-08 18:30:09.9440,0.339,0.722,0.274,-7.24,1.23,-5.46
2022-12-08 18:30:09.9540,0.343,0.697,0.12,-7.68,1.59,-4.12
2022-12-08 18:30:09.9640,0.333,0.66,-0.02,-7.86,1.78,-2.51
2022-12-08 18:30:09.9740,0.314,0.613,-0.134,-7.87,2.1,-1.07
2022-12-08 18:30:09.9840,0.274,0.573,-0.165,-7.76,2.51,0.07
2022-12-08 18:30:09.9940,0.229,0.541,-0.108,-7.43,2.87,0.33
2022-12-08 18:30:10.0040,0.223,0.521,0.016,-7.02,3.15,-0.32
2022-12-08 18:30:10.0140,0.292,0.539,0.134,-6.98,3.32,-1.64
2022-12-08 18:30:10.0240,0.366,0.566,0.15,-8.36,2.85,-3.13
2022-12-08 18:30:10.0360,0.403,0.583,0.103,-8.36,2.85,-3.13
2022-12-08 18:30:10.0440,0.406,0.595,0.058,-8.69,2.7,-2.74
2022-12-08 18:30:10.0560,0.382,0.619,0.032,-8.66,2.59,-2.37
2022-12-08 18:30:10.0650,0.352,0.649,0.024,-8.36,2.39,-2.17
2022-12-08 18:30:10.0770,0.298,0.682,0.04,-7.99,2.12,-2.15
2022-12-08 18:30:10.0850,0.21,0.716,0.046,-7.35,1.84,-2.36
2022-12-08 18:30:10.0950,0.082,0.749,0.03,-6.37,1.55,-2.48
2022-12-08 18:30:10.1050,-0.093,0.796,0.059,-3.1,0.88,-2.71
2022-12-08 18:30:10.1170,-0.329,0.861,-0.001,-3.1,0.88,-2.71
2022-12-08 18:30:10.1250,-0.561,0.99,-0.315,1.72,-0.93,0.95
2022-12-08 18:30:10.1370,-0.762,1.189,-0.691,3.68,-2.86,4.7
2022-12-08 18:30:10.1470,-1.003,1.414,-0.8,5.95,-5.09,5.88
2022-12-08 18:30:10.1570,-1.344,1.648,-0.755,5.95,-5.09,5.88
2022-12-08 18:30:10.1650,-1.722,1.688,-0.605,9.13,-7.42,5.59
2022-12-08 18:30:10.1740,-1.891,1.372,-0.436,12.74,-7.83,4.25
2022-12-08 18:30:10.1840,-1.956,0.886,-0.421,14.45,-4.7,2.63
2022-12-08 18:30:10.1950,-2.001,0.601,-0.359,15.27,0.14,2.4
2022-12-08 18:30:10.2050,-1.999,0.638,-0.282,15.92,2.99,1.65
2022-12-08 18:30:10.2150,-1.875,0.807,-0.22,16.07,2.65,0.74
2022-12-08 18:30:10.2250,-1.489,0.954,-0.172,14.92,0.99,-0.03
2022-12-08 18:30:10.2350,-1.138,1.064,-0.129,7.54,-1.63,-1.09
2022-12-08 18:30:10.2470,-0.916,1.215,-0.09,7.54,-1.63,-1.09
2022-12-08 18:30:10.2550,-0.684,1.375,0.122,5.21,-3.17,-1.47
2022-12-08 18:30:10.2650,-0.359,1.348,0.299,2.76,-4.8,-3.46
2022-12-08 18:30:10.2750,0.013,1.202,0.385,-0.57,-4.55,-5.0
2022-12-08 18:30:10.2850,0.212,1.017,0.046,-4.31,-3.11,-5.61
2022-12-08 18:30:10.2950,0.391,0.849,0.185,-6.28,-1.31,-2.3
2022-12-08 18:30:10.3050,0.66,0.866,0.816,-8.03,0.3,-3.86
2022-12-08 18:30:10.3150,0.701,0.888,0.634,-10.63,0.12,-10.22
2022-12-08 18:30:10.3250,0.614,0.961,0.243,-10.94,-0.08,-8.51
2022-12-08 18:30:10.3350,0.559,1.112,0.036,-9.23,-2.15,-2.67
2022-12-08 18:30:10.3470,0.414,1.283,-0.061,-9.23,-2.15,-2.67
2022-12-08 18:30:10.3550,0.305,1.408,-0.097,-7.61,-3.74,-1.7
2022-12-08 18:30:10.3650,0.279,1.413,-0.093,-5.92,-4.85,-1.3
2022-12-08 18:30:10.3770,0.299,1.307,-0.099,-5.92,-4.85,-1.3
2022-12-08 18:30:10.3850,0.36,1.122,-0.096,-5.99,-3.76,-1.18
2022-12-08 18:30:10.3950,0.409,0.939,-0.077,-6.47,-1.88,-1.15
2022-12-08 18:30:10.4050,0.427,0.843,-0.054,-6.82,-0.03,-1.27
2022-12-08 18:30:10.4150,0.386,0.81,-0.041,-6.86,0.96,-1.43
2022-12-08 18:30:10.4250,0.278,0.834,-0.045,-6.3,1.35,-1.48
2022-12-08 18:30:10.4350,0.168,0.897,-0.046,-5.08,1.17,-1.34
2022-12-08 18:30:10.4450,0.097,0.972,-0.043,-3.85,0.61,-1.21
2022-12-08 18:30:10.4550,0.044,1.043,-0.049,-3.02,-0.06,-1.1
2022-12-08 18:30:10.4650,0.006,1.098,-0.073,-2.39,-0.71,-0.86
2022-12-08 18:30:10.4750,-0.014,1.136,-0.124,-1.92,-1.21,-0.44
2022-12-08 18:30:10.4860,-0.018,1.151,-0.208,-1.63,-1.55,0.27
2022-12-08 18:30:10.4950,-0.02,1.143,-0.285,-1.51,-1.66,1.3
2022-12-08 18:30:10.5050,-0.045,1.101,-0.334,-1.39,-1.55,2.26
2022-12-08 18:30:10.5150,-0.073,1.045,-0.38,-1.03,-1.11,2.9
2022-12-08 18:30:10.5260,-0.114,0.994,-0.433,-0.62,-0.54,3.47
2022-12-08 18:30:10.5350,-0.158,0.958,-0.461,-0.07,-0.02,4.05
2022-12-08 18:30:10.5460,-0.163,0.92,-0.516,0.52,0.35,4.34
2022-12-08 18:30:10.5560,-0.185,0.896,-0.575,0.73,0.74,4.82
2022-12-08 18:30:10.5660,-0.236,0.891,-0.55,1.12,0.99,5.27
2022-12-08 18:30:10.5760,-0.281,0.899,-0.445,1.78,1.04,4.84
2022-12-08 18:30:10.5860,-0.308,0.917,-0.328,2.39,0.95,3.61
2022-12-08 18:30:10.5960,-0.33,0.939,-0.232,2.82,0.76,2.25
2022-12-08 18:30:10.6060,-0.359,0.955,-0.175,3.21,0.52,1.11
2022-12-08 18:30:10.6160,-0.385,0.952,-0.147,3.67,0.35,0.37
2022-12-08 18:30:10.6260,-0.39,0.936,-0.128,4.08,0.34,-0.07
2022-12-08 18:30:10.6360,-0.368,0.922,-0.105,4.18,0.58,-0.76
2022-12-08 18:30:10.6480,-0.331,0.92,-0.085,4.18,0.58,-0.76
2022-12-08 18:30:10.6560,-0.29,0.933,-0.066,3.92,0.57,-1.08
2022-12-08 18:30:10.6660,-0.235,0.944,0.019,3.63,0.41,-1.39
2022-12-08 18:30:10.6760,0.06,0.99,0.854,3.17,0.27,-2.32
2022-12-08 18:30:10.6860,0.281,1.024,1.124,0.37,-0.2,-10.53
2022-12-08 18:30:10.6960,0.077,0.994,0.252,-1.7,-0.54,-13.2
2022-12-08 18:30:10.7060,-0.083,1.004,-0.087,0.41,-0.27,-4.7
2022-12-08 18:30:10.7160,-0.195,1.034,-0.182,2.08,-0.4,-1.46
2022-12-08 18:30:10.7260,-0.3,1.049,-0.258,3.3,-0.73,-0.59
2022-12-08 18:30:10.7360,-0.362,1.057,-0.29,5.18,-0.99,0.48
2022-12-08 18:30:10.7480,-0.4,1.057,-0.288,5.18,-0.99,0.48
2022-12-08 18:30:10.7560,-0.438,1.038,-0.308,5.63,-0.99,0.54
2022-12-08 18:30:10.7660,-0.469,0.997,-0.356,6.07,-0.78,0.84
2022-12-08 18:30:10.7760,-0.465,0.967,-0.414,6.39,-0.36,1.45
2022-12-08 18:30:10.7860,-0.455,0.972,-0.454,6.23,-0.06,2.66
2022-12-08 18:30:10.7970,-0.469,1.047,-0.447,6.23,-0.06,2.66
2022-12-08 18:30:10.8060,-0.504,1.146,-0.388,6.35,-0.77,2.67
2022-12-08 18:30:10.8170,-0.531,1.17,-0.31,6.65,-1.73,2.15
2022-12-08 18:30:10.8260,-0.552,1.102,-0.228,6.87,-1.96,1.4
2022-12-08 18:30:10.8360,-0.599,1.04,-0.117,7.38,-0.65,-0.5
2022-12-08 18:30:10.8490,-0.805,1.043,0.384,7.38,-0.65,-0.5
2022-12-08 18:30:10.8580,-1.097,1.088,1.03,9.25,-0.65,-5.35
2022-12-08 18:30:10.8660,-0.9,1.083,0.387,11.92,-1.04,-11.49
2022-12-08 18:30:10.8760,-0.685,1.096,-0.146,9.76,-0.94,-4.99
2022-12-08 18:30:10.8860,-0.668,1.148,-0.165,7.42,-1.03,0.36
2022-12-08 18:30:10.8960,-0.603,1.194,-0.111,6.99,-1.51,0.62
2022-12-08 18:30:10.9060,-0.505,1.24,-0.081,6.04,-1.96,0.13
2022-12-08 18:30:10.9160,-0.409,1.288,-0.095,4.75,-2.41,-0.11
2022-12-08 18:30:10.9260,-0.332,1.358,-0.122,3.47,-2.88,0.08
2022-12-08 18:30:10.9370,-0.262,1.442,-0.161,2.36,-3.58,0.42
2022-12-08 18:30:10.9460,-0.188,1.511,-0.233,1.32,-4.44,0.91
2022-12-08 18:30:10.9560,-0.098,1.556,-0.324,0.26,-5.16,1.73
2022-12-08 18:30:10.9660,0.013,1.594,-0.409,-0.94,-5.65,2.75
2022-12-08 18:30:10.9760,0.114,1.635,-0.486,-2.3,-6.08,3.69
2022-12-08 18:30:10.9860,0.167,1.663,-0.553,-3.55,-6.54,4.52
2022-12-08 18:30:10.9960,0.185,1.644,-0.569,-4.29,-6.87,5.2
2022-12-08 18:30:11.0070,0.207,1.587,-0.535,-4.68,-6.76,5.33
2022-12-08 18:30:11.0160,0.234,1.489,-0.499,-5.09,-6.26,4.94
2022-12-08 18:30:11.0260,0.263,1.381,-0.483,-5.55,-5.37,4.49
2022-12-08 18:30:11.0370,0.295,1.273,-0.467,-6.49,-3.39,3.96
2022-12-08 18:30:11.0480,0.328,1.166,-0.399,-6.49,-3.39,3.96
2022-12-08 18:30:11.0570,0.361,1.072,-0.3,-6.97,-2.4,3.18
2022-12-08 18:30:11.0680,0.396,0.987,-0.261,-7.44,-1.55,2.09
2022-12-08 18:30:11.0770,0.379,0.911,-0.177,-7.9,-0.79,1.57
2022-12-08 18:30:11.0870,0.366,0.862,-0.083,-7.81,0.3,-0.44
2022-12-08 18:30:11.0990,0.347,0.816,0.016,-7.81,0.3,-0.44
2022-12-08 18:30:11.1070,0.294,0.764,0.204,-7.71,0.7,-1.55
2022-12-08 18:30:11.1170,0.174,0.702,0.573,-7.26,1.15,-3.48
2022-12-08 18:30:11.1270,0.138,0.674,0.567,-5.91,1.95,-7.04
2022-12-08 18:30:11.1390,0.157,0.673,0.426,-6.16,1.92,-5.66
2022-12-08 18:30:11.1490,0.17,0.663,0.364,-6.16,1.92,-5.66
2022-12-08 18:30:11.1570,0.183,0.638,0.271,-6.33,2.0,-5.08
2022-12-08 18:30:11.1670,0.2,0.624,0.161,-6.47,2.22,-4.21
2022-12-08 18:30:11.1770,0.232,0.626,0.091,-6.62,2.35,-3.2
2022-12-08 18:30:11.1870,0.272,0.631,0.079,-6.92,2.33,-2.59
2022-12-08 18:30:11.1970,0.29,0.634,0.111,-7.28,2.29,-2.55
2022-12-08 18:30:11.2070,0.283,0.642,0.119,-7.28,2.21,-3.04
2022-12-08 18:30:11.2190,0.264,0.67,0.053,-7.28,2.21,-3.04
2022-12-08 18:30:11.2270,0.241,0.712,-0.068,-7.04,1.96,-2.43
2022-12-08 18:30:11.2370,0.2,0.748,-0.17,-6.22,1.27,-0.35
2022-12-08 18:30:11.2500,0.145,0.796,-0.178,-6.22,1.27,-0.35
2022-12-08 18:30:11.2570,0.031,0.863,-0.12,-5.55,0.84,-0.36
2022-12-08 18:30:11.2670,-0.19,0.931,-0.181,-4.29,0.22,-1.06
2022-12-08 18:30:11.2770,-0.409,1.005,-0.421,-1.99,-0.42,-0.57
2022-12-08 18:30:11.2880,-0.602,1.119,-0.653,2.16,-2.24,4.0
2022-12-08 18:30:11.2990,-0.803,1.251,-0.72,2.16,-2.24,4.0
2022-12-08 18:30:11.3070,-1.037,1.384,-0.698,4.06,-4.87,4.62
2022-12-08 18:30:11.3190,-1.305,1.429,-0.635,6.24,-4.87,4.62
2022-12-08 18:30:11.3280,-1.482,1.225,-0.485,10.54,-3.28,2.82
2022-12-08 18:30:11.3390,-1.666,0.882,-0.404,10.54,-3.28,2.82
2022-12-08 18:30:11.3480,-1.864,0.613,-0.365,14.67,2.87,1.54
2022-12-08 18:30:11.3590,-1.919,0.515,-0.328,14.67,2.87,1.54
2022-12-08 18:30:11.3680,-1.88,0.565,-0.261,15.16,3.4,0.21
2022-12-08 18:30:11.3800,-1.634,0.792,-0.204,15.16,3.4,0.21
2022-12-08 18:30:11.3880,-1.166,0.983,-0.152,8.1,-0.76,-1.0
2022-12-08 18:30:11.4000,-0.767,1.04,-0.129,8.1,-0.76,-1.0
2022-12-08 18:30:11.4080,-0.495,1.063,-0.164,4.07,-1.37,-1.21
2022-12-08 18:30:11.4180,-0.281,1.117,-0.183,1.25,-1.63,-0.81
2022-12-08 18:30:11.4280,-0.105,1.2,-0.109,-0.97,-2.19,-0.54
2022-12-08 18:30:11.4380,0.014,1.255,0.003,-4.02,-3.55,-2.1
2022-12-08 18:30:11.4490,0.128,1.28,0.151,-4.02,-3.55,-2.1
2022-12-08 18:30:11.4580,0.244,1.285,0.117,-5.16,-3.78,-3.45
2022-12-08 18:30:11.4680,0.374,1.222,0.258,-6.27,-3.83,-3.17
2022-12-08 18:30:11.4780,0.531,1.129,0.493,-7.46,-3.21,-4.73
2022-12-08 18:30:11.4880,0.557,1.014,0.465,-8.88,-2.29,-7.2
2022-12-08 18:30:11.4980,0.459,0.92,0.242,-8.97,-1.12,-7.02
2022-12-08 18:30:11.5080,0.337,0.895,0.034,-7.83,-0.15,-4.89
2022-12-08 18:30:11.5180,0.218,0.934,-0.07,-6.47,0.15,-2.88
2022-12-08 18:30:11.5280,0.115,0.991,-0.08,-5.15,-0.18,-1.86
2022-12-08 18:30:11.5380,0.066,1.032,-0.053,-4.01,-0.69,-1.73
2022-12-08 18:30:11.5480,0.063,1.045,-0.031,-3.44,-1.05,-1.93
2022-12-08 18:30:11.5580,0.056,1.04,-0.019,-3.35,-1.14,-2.06
2022-12-08 18:30:11.5680,0.034,1.039,-0.015,-3.23,-1.04,-2.06
2022-12-08 18:30:11.5780,0.008,1.06,-0.015,-2.97,-0.98,-1.96
2022-12-08 18:30:11.5880,-0.018,1.093,-0.036,-2.67,-1.15,-1.8
2022-12-08 18:30:11.5980,-0.029,1.127,-0.066,-2.37,-1.41,-1.41
2022-12-08 18:30:11.6080,-0.034,1.152,-0.086,-2.21,-1.7,-0.93
2022-12-08 18:30:11.6180,-0.046,1.151,-0.097,-2.09,-1.9,-0.56
2022-12-08 18:30:11.6280,-0.056,1.12,-0.106,-1.88,-1.84,-0.28
2022-12-08 18:30:11.6380,-0.063,1.07,-0.118,-1.68,-1.5,-0.03
2022-12-08 18:30:11.6480,-0.056,1.02,-0.146,-1.5,-0.97,0.22
2022-12-08 18:30:11.6580,-0.037,0.984,-0.224,-1.44,-0.44,0.6
2022-12-08 18:30:11.6680,-0.03,0.96,-0.347,-1.49,-0.05,1.45
2022-12-08 18:30:11.6780,-0.021,0.926,-0.419,-1.41,0.21,2.7
2022-12-08 18:30:11.6880,-0.027,0.912,-0.419,-1.11,0.74,3.37
2022-12-08 18:30:11.7000,-0.021,0.916,-0.451,-1.11,0.74,3.37
2022-12-08 18:30:11.7080,-0.003,0.907,-0.524,-0.99,0.81,4.27
2022-12-08 18:30:11.7200,-0.008,0.898,-0.561,-0.99,0.81,4.27
2022-12-08 18:30:11.7280,-0.073,0.888,-0.516,-0.75,0.91,4.52
2022-12-08 18:30:11.7380,-0.117,0.878,-0.445,0.07,1.01,3.97
2022-12-08 18:30:11.7500,-0.123,0.864,-0.376,0.68,1.11,3.17
2022-12-08 18:30:11.7580,-0.122,0.863,-0.324,0.91,1.24,2.4
2022-12-08 18:30:11.7680,-0.134,0.871,-0.277,1.34,1.15,1.25
2022-12-08 18:30:11.7810,-0.139,0.895,-0.218,1.34,1.15,1.25
2022-12-08 18:30:11.7890,-0.14,0.935,-0.161,1.54,0.9,0.58
2022-12-08 18:30:11.7990,-0.129,0.976,-0.115,1.69,0.49,-0.04
2022-12-08 18:30:11.8090,-0.117,1.007,-0.073,1.76,-0.25,-1.04
2022-12-08 18:30:11.8200,-0.107,1.025,-0.052,1.76,-0.25,-1.04
2022-12-08 18:30:11.8290,-0.093,1.011,0.035,1.83,-0.45,-1.35
2022-12-08 18:30:11.8390,-0.216,0.937,0.777,1.82,-0.36,-2.35
2022-12-08 18:30:11.8490,-0.379,0.913,0.781,3.1,0.32,-9.78
2022-12-08 18:30:11.8590,-0.242,0.909,0.059,4.72,0.53,-9.93
2022-12-08 18:30:11.8690,-0.175,0.949,-0.226,3.38,0.54,-2.95
2022-12-08 18:30:11.8790,-0.241,1.037,-0.306,2.77,0.13,-0.25
2022-12-08 18:30:11.8890,-0.331,1.136,-0.333,3.48,-0.77,0.46
2022-12-08 18:30:11.8990,-0.43,1.189,-0.313,4.47,-1.77,0.69
2022-12-08 18:30:11.9090,-0.521,1.164,-0.268,5.54,-2.3,0.5
2022-12-08 18:30:11.9190,-0.562,1.082,-0.239,6.54,-2.05,0.1
2022-12-08 18:30:11.9290,-0.563,1.002,-0.247,7.02,-1.24,-0.1
2022-12-08 18:30:11.9390,-0.567,0.978,-0.261,7.09,-0.44,0.08
2022-12-08 18:30:11.9490,-0.576,0.999,-0.255,7.15,-0.18,0.34
2022-12-08 18:30:11.9600,-0.592,1.023,-0.235,7.23,-0.36,0.38
2022-12-08 18:30:11.9690,-0.611,1.007,-0.184,7.36,-0.57,0.28
2022-12-08 18:30:11.9790,-0.665,0.975,-0.038,7.49,-0.39,-0.16
2022-12-08 18:30:11.9890,-0.805,0.956,0.364,7.92,-0.05,-1.54
2022-12-08 18:30:11.9990,-0.928,0.949,0.7,9.17,0.17,-5.4
2022-12-08 18:30:12.0090,-0.822,0.945,0.431,10.21,0.29,-8.55
2022-12-08 18:30:12.0190,-0.644,1.011,0.029,8.96,0.37,-5.76
2022-12-08 18:30:12.0290,-0.593,1.13,-0.137,7.0,-0.24,-1.68
2022-12-08 18:30:12.0390,-0.58,1.209,-0.155,6.25,-1.38,0.06
2022-12-08 18:30:12.0490,-0.539,1.259,-0.156,5.85,-2.13,0.33
2022-12-08 18:30:12.0590,-0.493,1.322,-0.169,5.15,-2.61,0.42
2022-12-08 18:30:12.0690,-0.443,1.415,-0.171,4.38,-3.22,0.62
2022-12-08 18:30:12.0790,-0.378,1.525,-0.167,3.55,-4.16,0.72
2022-12-08 18:30:12.0890,-0.295,1.63,-0.179,2.57,-5.26,0.76
2022-12-08 18:30:12.1010,-0.19,1.708,-0.211,1.4,-6.33,0.96
2022-12-08 18:30:12.1090,-0.069,1.734,-0.27,-1.46,-7.46,2.04
2022-12-08 18:30:12.1210,0.085,1.73,-0.308,-1.46,-7.46,2.04
2022-12-08 18:30:12.1290,0.188,1.696,-0.325,-4.49,-7.21,2.69
2022-12-08 18:30:12.1410,0.24,1.642,-0.327,-4.49,-7.21,2.69
2022-12-08 18:30:12.1520,0.251,1.564,-0.314,-5.47,-6.03,2.51
2022-12-08 18:30:12.1610,0.246,1.454,-0.263,-5.47,-6.03,2.51
2022-12-08 18:30:12.1720,0.243,1.323,-0.205,-5.58,-5.0,1.92
2022-12-08 18:30:12.1810,0.247,1.197,-0.17,-5.68,-3.78,1.23
2022-12-08 18:30:12.1900,0.255,1.057,-0.157,-6.06,-1.29,0.47
2022-12-08 18:30:12.2020,0.255,0.912,-0.13,-6.06,-1.29,0.47
2022-12-08 18:30:12.2100,0.278,0.859,-0.037,-6.56,0.48,-1.07
2022-12-08 18:30:12.2220,0.299,0.862,0.069,-6.56,0.48,-1.07
2022-12-08 18:30:12.2300,0.23,0.816,0.336,-6.4,0.74,-4.93
2022-12-08 18:30:12.2410,0.197,0.784,0.489,-6.25,0.97,-6.39
2022-12-08 18:30:12.2520,0.245,0.774,0.318,-6.87,1.01,-4.6
2022-12-08 18:30:12.2620,0.268,0.747,0.097,-6.87,1.01,-4.6
2022-12-08 18:30:12.2700,0.262,0.694,-0.077,-7.23,1.71,-0.6
2022-12-08 18:30:12.2820,0.233,0.632,-0.162,-7.0,2.28,0.2
2022-12-08 18:30:12.2920,0.195,0.584,-0.147,-6.65,2.73,-0.05
2022-12-08 18:30:12.3020,0.188,0.551,-0.057,-6.65,2.73,-0.05
2022-12-08 18:30:12.3100,0.256,0.563,0.051,-7.22,2.91,-2.25
2022-12-08 18:30:12.3220,0.343,0.611,0.118,-7.22,2.91,-2.25
2022-12-08 18:30:12.3300,0.394,0.644,0.137,-8.47,2.12,-3.31
2022-12-08 18:30:12.3420,0.403,0.653,0.114,-8.47,2.05,-3.18
2022-12-08 18:30:12.3520,0.386,0.652,0.08,-8.47,2.05,-3.18
2022-12-08 18:30:12.3600,0.355,0.653,0.045,-8.22,2.09,-2.92
2022-12-08 18:30:12.3700,0.31,0.67,0.02,-7.81,2.11,-2.64
2022-12-08 18:30:12.3800,0.243,0.703,0.015,-7.25,1.99,-2.47
2022-12-08 18:30:12.3900,0.126,0.752,0.008,-6.44,1.72,-2.49
2022-12-08 18:30:12.4000,-0.079,0.824,-0.003,-5.13,1.3,-2.5
2022-12-08 18:30:12.4100,-0.346,0.91,-0.216,-2.94,0.64,-2.46
2022-12-08 18:30:12.4200,-0.576,1.042,-0.555,-0.19,-0.15,-0.39
2022-12-08 18:30:12.4300,-0.8,1.209,-0.692,2.12,-1.41,2.97
2022-12-08 18:30:12.4400,-1.088,1.407,-0.674,4.28,-3.04,4.42
2022-12-08 18:30:12.4500,-1.502,1.542,-0.637,7.01,-4.97,4.42
2022-12-08 18:30:12.4600,-1.842,1.395,-0.521,11.0,-6.27,4.29
2022-12-08 18:30:12.4700,-2.163,1.113,-0.509,14.41,-4.77,3.32
2022-12-08 18:30:12.4800,-2.38,0.801,-0.495,17.76,-1.91,3.21
2022-12-08 18:30:12.4900,-2.301,0.597,-0.391,20.13,1.21,2.96
2022-12-08 18:30:12.5000,-2.066,0.536,-0.268,19.57,3.25,1.77
2022-12-08 18:30:12.5100,-1.723,0.688,-0.158,17.39,3.85,0.39
2022-12-08 18:30:12.5200,-1.149,0.837,-0.087,14.02,2.32,-0.84
2022-12-08 18:30:12.5300,-0.653,0.855,-0.027,8.32,0.8,-1.63
2022-12-08 18:30:12.5400,-0.292,0.89,0.091,3.31,0.57,-2.25
2022-12-08 18:30:12.5500,-0.089,1.063,0.215,-0.38,0.19,-3.39
2022-12-08 18:30:12.5600,-0.095,1.325,0.161,-2.5,-1.54,-4.51
2022-12-08 18:30:12.5700,-0.083,1.524,0.093,-2.57,-4.11,-3.84
2022-12-08 18:30:12.5800,-0.006,1.588,-0.072,-2.8,-6.07,-2.99
2022-12-08 18:30:12.5900,0.118,1.552,-0.248,-3.64,-6.72,-1.32
2022-12-08 18:30:12.6000,0.392,1.398,0.328,-4.88,-6.42,0.25
2022-12-08 18:30:12.6100,0.672,1.239,0.734,-10.24,-3.4,-9.71
2022-12-08 18:30:12.6220,0.672,1.062,0.503,-10.24,-3.4,-9.71
2022-12-08 18:30:12.6300,0.542,0.958,0.154,-10.14,-1.64,-7.47
2022-12-08 18:30:12.6410,0.428,0.958,-0.005,-8.74,-0.56,-4.04
2022-12-08 18:30:12.6500,0.304,1.018,-0.051,-7.45,-0.49,-2.45
2022-12-08 18:30:12.6610,0.228,1.089,-0.04,-6.06,-1.0,-1.95
2022-12-08 18:30:12.6710,0.202,1.131,-0.033,-5.17,-1.63,-2.0
2022-12-08 18:30:12.6810,0.213,1.142,-0.016,-4.78,-1.97,-1.97
2022-12-08 18:30:12.6930,0.242,1.139,-0.008,-4.78,-2.02,-2.01
2022-12-08 18:30:12.7010,0.295,1.127,-0.055,-5.39,-1.75,-1.33
2022-12-08 18:30:12.7130,0.327,1.124,-0.108,-5.39,-1.75,-1.33
2022-12-08 18:30:12.7210,0.306,1.126,-0.115,-5.6,-1.67,-0.65
2022-12-08 18:30:12.7310,0.292,1.11,-0.121,-5.28,-1.64,-0.43
2022-12-08 18:30:12.7410,0.284,1.104,-0.138,-5.0,-1.42,-0.22
2022-12-08 18:30:12.7520,0.258,1.105,-0.165,-4.76,-1.31,0.08
2022-12-08 18:30:12.7610,0.235,1.113,-0.219,-4.33,-1.26,0.48
2022-12-08 18:30:12.7710,0.19,1.118,-0.278,-3.91,-1.29,1.13
2022-12-08 18:30:12.7810,0.137,1.117,-0.323,-3.27,-1.31,1.81
2022-12-08 18:30:12.7910,0.092,1.097,-0.361,-2.56,-1.26,2.34
2022-12-08 18:30:12.8010,0.032,1.063,-0.352,-1.92,-1.04,2.77
2022-12-08 18:30:12.8110,-0.039,1.027,-0.334,-1.14,-0.69,2.72
2022-12-08 18:30:12.8210,-0.071,0.969,-0.342,-0.27,-0.32,2.54
2022-12-08 18:30:12.8310,-0.069,0.9,-0.358,0.22,0.26,2.6
2022-12-08 18:30:12.8410,-0.085,0.846,-0.371,0.36,0.93,2.71
2022-12-08 18:30:12.8510,-0.123,0.816,-0.358,0.68,1.46,2.75
2022-12-08 18:30:12.8610,-0.162,0.805,-0.32,1.2,1.75,2.51
2022-12-08 18:30:12.8710,-0.187,0.803,-0.282,1.75,1.84,2.01
2022-12-08 18:30:12.8810,-0.21,0.805,-0.249,2.14,1.84,1.49
2022-12-08 18:30:12.8910,-0.242,0.813,-0.221,2.52,1.79,1.03
2022-12-08 18:30:12.9010,-0.269,0.825,-0.193,3.0,1.68,0.62
2022-12-08 18:30:12.9110,-0.278,0.853,-0.156,3.42,1.54,0.22
2022-12-08 18:30:12.9210,-0.279,0.869,-0.124,3.65,1.23,-0.26
2022-12-08 18:30:12.9310,-0.266,0.865,-0.091,3.8,1.04,-0.67
2022-12-08 18:30:12.9410,-0.235,0.855,-0.002,3.81,1.04,-1.07
2022-12-08 18:30:12.9510,-0.153,0.912,0.612,3.63,1.11,-2.01
2022-12-08 18:30:12.9610,-0.188,1.007,0.939,2.93,0.54,-8.08
2022-12-08 18:30:12.9710,-0.28,0.985,0.272,3.35,-0.41,-11.29
2022-12-08 18:30:12.9810,-0.276,0.952,-0.108,4.31,-0.22,-4.77
2022-12-08 18:30:12.9910,-0.289,0.992,-0.214,4.35,0.09,-1.06
2022-12-08 18:30:13.0010,-0.334,1.066,-0.266,4.56,-0.31,-0.01
2022-12-08 18:30:13.0110,-0.392,1.136,-0.292,5.08,-1.05,0.55
2022-12-08 18:30:13.0210,-0.438,1.167,-0.321,5.7,-1.72,0.88
2022-12-08 18:30:13.0310,-0.463,1.145,-0.359,6.2,-2.02,1.27
2022-12-08 18:30:13.0410,-0.475,1.094,-0.391,6.46,-1.78,1.76
2022-12-08 18:30:13.0510,-0.513,1.083,-0.4,6.58,-1.26,2.19
2022-12-08 18:30:13.0610,-0.569,1.11,-0.389,6.93,-1.13,2.38
2022-12-08 18:30:13.0710,-0.624,1.131,-0.363,7.45,-1.37,2.36
2022-12-08 18:30:13.0810,-0.668,1.113,-0.326,7.92,-1.56,2.15
2022-12-08 18:30:13.0910,-0.717,1.087,-0.281,8.28,-1.37,1.8
2022-12-08 18:30:13.1010,-0.803,1.078,-0.118,8.65,-1.1,1.35
2022-12-08 18:30:13.1110,-1.258,1.115,1.078,9.37,-0.99,-0.26
2022-12-08 18:30:13.1210,-1.338,1.201,0.926,13.66,-1.31,-11.87
2022-12-08 18:30:13.1310,-0.912,1.257,-0.146,14.24,-2.11,-10.21
2022-12-08 18:30:13.1410,-0.763,1.263,-0.186,9.8,-2.62,0.41
2022-12-08 18:30:13.1520,-0.601,1.28,-0.152,8.04,-2.65,0.84
2022-12-08 18:30:13.1620,-0.478,1.343,-0.136,6.1,-2.8,0.53
2022-12-08 18:30:13.1720,-0.371,1.424,-0.143,4.53,-3.42,0.4
2022-12-08 18:30:13.1820,-0.259,1.514,-0.165,3.08,-4.22,0.51
2022-12-08 18:30:13.1920,-0.164,1.609,-0.2,1.57,-5.14,0.79
2022-12-08 18:30:13.2020,-0.09,1.695,-0.269,0.23,-6.1,1.21
2022-12-08 18:30:13.2120,0.042,1.764,-0.347,-0.88,-7.0,1.99
2022-12-08 18:30:13.2220,0.142,1.825,-0.394,-2.51,-7.75,2.84
2022-12-08 18:30:13.2320,0.261,1.854,-0.404,-3.8,-8.41,3.38
2022-12-08 18:30:13.2420,0.333,1.787,-0.394,-5.23,-8.76,3.51
2022-12-08 18:30:13.2520,0.31,1.653,-0.365,-6.14,-8.17,3.4
2022-12-08 18:30:13.2620,0.281,1.493,-0.311,-6.11,-6.92,3.06
2022-12-08 18:30:13.2720,0.283,1.341,-0.26,-6.0,-5.41,2.45
2022-12-08 18:30:13.2820,0.27,1.189,-0.236,-6.18,-3.98,1.85
2022-12-08 18:30:13.2920,0.276,1.061,-0.212,-6.22,-2.57,1.5
2022-12-08 18:30:13.3020,0.314,0.945,-0.207,-6.46,-1.4,1.16
2022-12-08 18:30:13.3120,0.356,0.839,-0.183,-7.01,-0.34,0.99
2022-12-08 18:30:13.3220,0.407,0.786,-0.116,-7.6,0.6,0.64
2022-12-08 18:30:13.3320,0.433,0.777,-0.003,-8.28,1.02,-0.14
2022-12-08 18:30:13.3420,0.406,0.766,0.16,-8.58,1.04,-2.98
2022-12-08 18:30:13.3540,0.408,0.745,0.219,-8.58,1.04,-2.98
2022-12-08 18:30:13.3620,0.42,0.711,0.135,-8.73,1.17,-3.55
2022-12-08 18:30:13.3720,0.413,0.681,0.05,-8.96,1.45,-2.69
2022-12-08 18:30:13.3820,0.393,0.646,0.016,-8.97,1.69,-1.86
2022-12-08 18:30:13.3920,0.345,0.613,0.067,-8.83,2.0,-1.56
2022-12-08 18:30:13.4020,0.3,0.601,0.184,-8.37,2.31,-2.11
2022-12-08 18:30:13.4120,0.295,0.614,0.259,-7.92,2.42,-3.34
2022-12-08 18:30:13.4220,0.325,0.631,0.229,-7.87,2.28,-4.13
2022-12-08 18:30:13.4320,0.362,0.649,0.133,-8.13,2.12,-3.91
2022-12-08 18:30:13.4420,0.384,0.667,0.065,-8.45,1.95,-3.03
2022-12-08 18:30:13.4530,0.381,0.681,0.043,-8.61,1.8,-2.44
2022-12-08 18:30:13.4620,0.344,0.705,0.041,-8.49,1.69,-2.31
2022-12-08 18:30:13.4730,0.278,0.732,0.082,-8.03,1.5,-2.37
2022-12-08 18:30:13.4830,0.173,0.764,0.077,-7.25,1.28,-2.85
2022-12-08 18:30:13.4920,-0.007,0.824,0.068,-6.06,1.03,-2.9
2022-12-08 18:30:13.5030,-0.227,0.906,-0.04,-4.12,0.5,-2.92
2022-12-08 18:30:13.5130,-0.418,1.009,-0.419,-1.8,-0.25,-1.92
2022-12-08 18:30:13.5230,-0.579,1.129,-0.75,0.19,-1.2,1.79
2022-12-08 18:30:13.5330,-0.809,1.27,-0.779,1.81,-2.35,5.1
2022-12-08 18:30:13.5430,-1.099,1.4,-0.739,4.02,-3.72,5.53
2022-12-08 18:30:13.5530,-1.366,1.453,-0.643,6.78,-4.98,5.34
2022-12-08 18:30:13.5630,-1.526,1.26,-0.489,9.38,-5.46,4.62
2022-12-08 18:30:13.5730,-1.755,0.96,-0.419,11.07,-3.49,3.26
2022-12-08 18:30:13.5830,-1.948,0.753,-0.321,13.56,-0.45,2.57
2022-12-08 18:30:13.5930,-1.937,0.612,-0.232,15.75,1.67,1.46
2022-12-08 18:30:13.6030,-1.773,0.557,-0.154,15.93,3.11,0.36
2022-12-08 18:30:13.6130,-1.601,0.721,-0.092,14.53,3.67,-0.62
2022-12-08 18:30:13.6230,-1.253,0.924,-0.029,12.95,2.05,-1.41
2022-12-08 18:30:13.6330,-0.769,0.96,0.126,9.54,0.03,-2.14
2022-12-08 18:30:13.6430,-0.404,1.017,0.334,4.71,-0.36,-3.69
2022-12-08 18:30:13.6530,-0.255,1.193,0.518,-0.51,-2.65,-7.35
2022-12-08 18:30:13.6650,-0.35,1.367,0.368,-0.51,-2.65,-7.35
2022-12-08 18:30:13.6730,-0.337,1.419,0.033,0.33,-4.35,-5.7
2022-12-08 18:30:13.6830,-0.202,1.427,-0.296,0.1,-4.86,-2.25
2022-12-08 18:30:13.6930,-0.041,1.368,-0.245,-1.3,-4.96,0.96
2022-12-08 18:30:13.7030,0.255,1.254,0.336,-2.92,-4.44,0.28
2022-12-08 18:30:13.7130,0.51,1.137,0.815,-5.83,-3.37,-5.61
2022-12-08 18:30:13.7230,0.445,0.993,0.618,-8.32,-2.24,-10.4
2022-12-08 18:30:13.7330,0.313,0.887,0.205,-7.65,-0.82,-8.47
2022-12-08 18:30:13.7430,0.323,0.877,0.025,-6.33,0.39,-2.55
2022-12-08 18:30:13.7550,0.306,0.945,-0.015,-6.33,0.39,-2.55
2022-12-08 18:30:13.7630,0.234,1.05,-0.009,-6.08,-0.23,-2.1
2022-12-08 18:30:13.7730,0.177,1.141,0.008,-5.27,-1.21,-2.08
2022-12-08 18:30:13.7830,0.181,1.174,0.024,-4.63,-2.05,-2.15
2022-12-08 18:30:13.7930,0.226,1.164,0.017,-4.96,-2.18,-1.98
2022-12-08 18:30:13.8050,0.264,1.141,-0.033,-4.96,-2.18,-1.98
2022-12-08 18:30:13.8130,0.291,1.111,-0.095,-5.24,-1.9,-1.34
2022-12-08 18:30:13.8230,0.304,1.075,-0.138,-5.42,-1.55,-0.59
2022-12-08 18:30:13.8330,0.27,1.046,-0.119,-5.43,-1.15,-0.03
2022-12-08 18:30:13.8430,0.217,1.043,-0.099,-4.31,-0.74,-0.16
2022-12-08 18:30:13.8560,0.206,1.044,-0.114,-4.31,-0.74,-0.16
2022-12-08 18:30:13.8650,0.237,1.032,-0.165,-4.06,-0.7,0.11
2022-12-08 18:30:13.8730,0.261,1.035,-0.237,-4.22,-0.54,0.74
2022-12-08 18:30:13.8830,0.273,1.03,-0.337,-4.29,-0.53,1.56
2022-12-08 18:30:13.8940,0.224,1.004,-0.365,-4.23,-0.44,2.64
2022-12-08 18:30:13.9040,0.155,0.986,-0.351,-3.58,-0.16,2.99
2022-12-08 18:30:13.9140,0.131,0.962,-0.395,-2.32,0.3,3.38
2022-12-08 18:30:13.9260,0.109,0.939,-0.465,-2.32,0.3,3.38
2022-12-08 18:30:13.9340,0.048,0.915,-0.515,-1.93,0.55,4.07
2022-12-08 18:30:13.9450,-0.024,0.903,-0.527,-0.32,0.92,4.61
2022-12-08 18:30:13.9560,-0.078,0.909,-0.508,-0.32,0.92,4.61
2022-12-08 18:30:13.9640,-0.119,0.931,-0.454,0.34,0.86,4.34
2022-12-08 18:30:13.9740,-0.153,0.962,-0.39,0.88,0.64,3.7
2022-12-08 18:30:13.9840,-0.204,0.983,-0.335,1.35,0.32,2.94
2022-12-08 18:30:13.9940,-0.248,1.005,-0.269,2.58,-0.12,1.46
2022-12-08 18:30:14.0060,-0.271,1.029,-0.206,2.58,-0.12,1.46
2022-12-08 18:30:14.0140,-0.287,1.037,-0.148,2.96,-0.38,0.69
2022-12-08 18:30:14.0240,-0.306,1.03,-0.097,3.27,-0.49,-0.01
2022-12-08 18:30:14.0340,-0.322,1.014,-0.005,3.63,-0.45,-0.67
2022-12-08 18:30:14.0440,-0.433,0.974,1.097,5.13,0.04,-12.57
2022-12-08 18:30:14.0560,-0.465,0.961,1.575,5.13,0.04,-12.57
2022-12-08 18:30:14.0640,-0.312,0.869,0.289,5.51,0.16,-17.3
2022-12-08 18:30:14.0740,-0.272,0.855,-0.144,4.07,1.03,-4.77
2022-12-08 18:30:14.0840,-0.286,0.925,-0.204,3.75,1.15,-0.6
2022-12-08 18:30:14.0940,-0.304,0.998,-0.233,3.99,0.44,-0.06
2022-12-08 18:30:14.1040,-0.377,1.05,-0.232,4.3,-0.29,0.23
2022-12-08 18:30:14.1140,-0.437,1.067,-0.229,5.13,-0.81,0.3
2022-12-08 18:30:14.1240,-0.463,1.037,-0.266,5.83,-0.96,0.38
2022-12-08 18:30:14.1340,-0.464,0.989,-0.345,6.17,-0.66,0.88
2022-12-08 18:30:14.1440,-0.447,0.963,-0.439,6.08,0.1,2.87
2022-12-08 18:30:14.1570,-0.431,0.969,-0.504,6.08,0.1,2.87
2022-12-08 18:30:14.1640,-0.43,0.991,-0.526,5.93,0.06,3.62
2022-12-08 18:30:14.1740,-0.441,1.019,-0.464,5.92,-0.15,3.89
2022-12-08 18:30:14.1840,-0.475,1.082,-0.349,6.01,-0.42,3.29
2022-12-08 18:30:14.1940,-0.534,1.131,-0.205,6.32,-1.04,2.14
2022-12-08 18:30:14.2070,-0.662,1.12,0.193,6.84,-1.51,0.69
2022-12-08 18:30:14.2140,-0.88,1.039,0.781,8.01,-1.38,-3.18
2022-12-08 18:30:14.2240,-0.893,0.913,0.652,10.01,-0.56,-8.82
2022-12-08 18:30:14.2340,-0.736,0.833,0.175,9.97,0.72,-7.38
2022-12-08 18:30:14.2440,-0.697,0.913,-0.041,7.67,0.78,-0.33
2022-12-08 18:30:14.2570,-0.743,1.085,-0.157,7.67,0.78,-0.33
2022-12-08 18:30:14.2640,-0.772,1.243,-0.188,7.9,-0.88,0.89
2022-12-08 18:30:14.2740,-0.726,1.355,-0.18,7.92,-2.41,1.25
2022-12-08 18:30:14.2840,-0.625,1.424,-0.183,7.14,-3.5,1.22
2022-12-08 18:30:14.2940,-0.511,1.497,-0.205,5.81,-4.18,1.32
2022-12-08 18:30:14.3060,-0.408,1.59,-0.232,4.31,-4.92,1.6
2022-12-08 18:30:14.3150,-0.315,1.693,-0.26,2.91,-5.86,1.94
2022-12-08 18:30:14.3250,-0.206,1.784,-0.306,1.6,-6.91,2.32
2022-12-08 18:30:14.3350,-0.034,1.846,-0.384,0.15,-7.87,2.87
2022-12-08 18:30:14.3450,0.16,1.862,-0.436,-4.09,-8.79,4.33
2022-12-08 18:30:14.3570,0.286,1.835,-0.452,-4.09,-8.79,4.33
2022-12-08 18:30:14.3650,0.289,1.741,-0.435,-5.6,-8.6,4.5
2022-12-08 18:30:14.3750,0.308,1.616,-0.396,-5.86,-7.75,4.29
2022-12-08 18:30:14.3850,0.347,1.467,-0.337,-6.8,-5.19,3.1
2022-12-08 18:30:14.3970,0.35,1.311,-0.277,-6.97,-3.72,2.35
2022-12-08 18:30:14.4070,0.341,1.176,-0.252,-6.97,-3.72,2.35
2022-12-08 18:30:14.4150,0.322,1.047,-0.239,-7.01,-2.46,1.93
2022-12-08 18:30:14.4250,0.309,0.911,-0.21,-6.95,-1.26,1.61
2022-12-08 18:30:14.4350,0.33,0.853,-0.103,-6.94,0.01,1.12
2022-12-08 18:30:14.4450,0.323,0.837,0.125,-7.28,0.5,-0.13
2022-12-08 18:30:14.4550,0.233,0.801,0.448,-7.35,0.56,-2.52
2022-12-08 18:30:14.4650,0.255,0.773,0.437,-6.63,0.84,-5.74
2022-12-08 18:30:14.4750,0.356,0.765,0.24,-7.0,1.04,-5.58
2022-12-08 18:30:14.4850,0.392,0.737,0.039,-8.14,1.05,-3.56
2022-12-08 18:30:14.4950,0.379,0.694,-0.113,-8.59,1.29,-1.51
2022-12-08 18:30:14.5050,0.315,0.659,-0.183,-8.52,1.67,0.0
2022-12-08 18:30:14.5150,0.209,0.625,-0.116,-7.92,2.0,0.63
2022-12-08 18:30:14.5250,0.133,0.594,0.025,-6.88,2.31,-0.15
2022-12-08 18:30:14.5350,0.158,0.575,0.116,-6.13,2.6,-1.68
2022-12-08 18:30:14.5450,0.253,0.613,0.127,-6.34,2.77,-2.71
2022-12-08 18:30:14.5550,0.336,0.667,0.1,-7.25,2.39,-2.94
2022-12-08 18:30:14.5650,0.382,0.69,0.075,-8.0,1.86,-2.81
2022-12-08 18:30:14.5750,0.402,0.69,0.075,-8.39,1.65,-2.68
2022-12-08 18:30:14.5850,0.4,0.687,0.118,-8.5,1.67,-2.79
2022-12-08 18:30:14.5950,0.349,0.717,0.14,-8.38,1.73,-3.3
2022-12-08 18:30:14.6050,0.256,0.789,0.086,-7.78,1.48,-3.58
2022-12-08 18:30:14.6150,0.131,0.872,-0.007,-6.73,0.81,-3.13
2022-12-08 18:30:14.6250,-0.042,0.932,-0.04,-5.36,0.05,-2.32
2022-12-08 18:30:14.6350,-0.267,1.002,-0.161,-3.48,-0.49,-2.11
2022-12-08 18:30:14.6450,-0.478,1.096,-0.508,-1.11,-1.14,-1.01
2022-12-08 18:30:14.6550,-0.678,1.211,-0.696,1.07,-2.02,2.36
2022-12-08 18:30:14.6650,-0.885,1.341,-0.675,3.05,-3.13,4.25
2022-12-08 18:30:14.6750,-1.094,1.426,-0.644,5.03,-4.4,4.15
2022-12-08 18:30:14.6850,-1.332,1.328,-0.618,7.04,-5.21,4.0
2022-12-08 18:30:14.6950,-1.538,1.048,-0.556,9.4,-4.19,3.91
2022-12-08 18:30:14.7050,-1.787,0.795,-0.495,11.57,-1.36,3.41
2022-12-08 18:30:14.7150,-1.913,0.647,-0.389,14.23,1.2,2.77
2022-12-08 18:30:14.7250,-1.881,0.556,-0.276,15.7,2.71,1.6
2022-12-08 18:30:14.7350,-1.719,0.501,-0.163,15.6,3.61,0.28
2022-12-08 18:30:14.7450,-1.517,0.636,-0.084,12.27,2.79,-1.97
2022-12-08 18:30:14.7580,-1.254,0.961,-0.028,9.67,-0.44,-2.63
2022-12-08 18:30:14.7680,-0.877,1.099,0.023,9.67,-0.44,-2.63
2022-12-08 18:30:14.7760,-0.517,1.081,0.1,5.88,-1.82,-3.16
2022-12-08 18:30:14.7860,-0.288,1.049,0.133,2.21,-1.67,-3.86
2022-12-08 18:30:14.7960,-0.26,1.116,0.023,-0.57,-2.02,-2.82
2022-12-08 18:30:14.8080,-0.302,1.227,-0.167,-0.57,-2.02,-2.82
2022-12-08 18:30:14.8160,-0.216,1.292,-0.291,-0.29,-3.11,-0.8
2022-12-08 18:30:14.8270,-0.096,1.349,-0.342,-1.25,-3.75,0.56
2022-12-08 18:30:14.8360,0.033,1.364,-0.339,-3.83,-4.56,0.87
2022-12-08 18:30:14.8480,0.286,1.35,0.167,-6.29,-4.48,-4.33
2022-12-08 18:30:14.8580,0.663,1.32,0.962,-9.91,-4.19,-12.25
2022-12-08 18:30:14.8680,0.804,1.197,1.062,-11.18,-2.95,-13.26
2022-12-08 18:30:14.8780,0.596,1.057,0.433,-11.18,-2.95,-13.26
2022-12-08 18:30:14.8860,0.433,1.021,0.074,-9.0,-1.52,-7.07
2022-12-08 18:30:14.8980,0.303,1.049,-0.05,-7.24,-1.1,-3.53
2022-12-08 18:30:14.9080,0.212,1.087,-0.046,-5.8,-1.32,-2.3
2022-12-08 18:30:14.9160,0.149,1.1,-0.015,-4.77,-1.64,-2.3
2022-12-08 18:30:14.9260,0.125,1.095,0.003,-4.02,-1.72,-2.56
2022-12-08 18:30:14.9360,0.146,1.091,0.014,-3.81,-1.53,-2.67
2022-12-08 18:30:14.9480,0.165,1.097,0.012,-3.91,-1.53,-2.52
2022-12-08 18:30:14.9580,0.158,1.116,0.001,-3.76,-1.66,-2.27
2022-12-08 18:30:14.9680,0.165,1.123,-0.012,-3.76,-1.66,-2.27
2022-12-08 18:30:14.9760,0.221,1.117,-0.058,-4.14,-1.55,-1.34
2022-12-08 18:30:14.9880,0.292,1.117,-0.151,-4.14,-1.55,-1.34
2022-12-08 18:30:14.9960,0.255,1.127,-0.178,-4.16,-1.52,0.17
2022-12-08 18:30:15.0080,0.19,1.133,-0.193,-4.16,-1.52,0.17
2022-12-08 18:30:15.0160,0.182,1.127,-0.211,-3.35,-1.53,0.46
2022-12-08 18:30:15.0260,0.212,1.105,-0.257,-3.09,-1.43,0.78
2022-12-08 18:30:15.0360,0.276,1.066,-0.365,-3.21,-1.17,1.34
2022-12-08 18:30:15.0460,0.284,1.048,-0.454,-3.65,-0.76,2.51
2022-12-08 18:30:15.0560,0.257,1.034,-0.485,-3.54,-0.55,3.48
2022-12-08 18:30:15.0660,0.187,1.011,-0.516,-3.08,-0.4,3.84
2022-12-08 18:30:15.0760,0.094,0.967,-0.516,-2.21,-0.16,4.18
2022-12-08 18:30:15.0860,0.013,0.908,-0.521,-1.14,0.27,4.2
2022-12-08 18:30:15.0960,-0.033,0.857,-0.538,-0.2,0.86,4.24
2022-12-08 18:30:15.1060,-0.049,0.825,-0.51,0.38,1.35,4.37
2022-12-08 18:30:15.1160,-0.09,0.831,-0.464,0.67,1.67,4.04
2022-12-08 18:30:15.1260,-0.148,0.87,-0.422,1.2,1.6,3.51
2022-12-08 18:30:15.1360,-0.205,0.924,-0.366,1.9,1.2,3.01
2022-12-08 18:30:15.1460,-0.25,0.988,-0.29,2.58,0.65,2.35
2022-12-08 18:30:15.1560,-0.286,1.047,-0.226,3.16,-0.01,1.5
2022-12-08 18:30:15.1660,-0.297,1.077,-0.18,3.65,-0.61,0.75
2022-12-08 18:30:15.1760,-0.285,1.074,-0.14,3.92,-0.94,0.18
2022-12-08 18:30:15.1860,-0.269,1.03,-0.111,3.96,-0.95,-0.35
2022-12-08 18:30:15.1960,-0.26,0.939,-0.115,3.97,-0.57,-0.79
2022-12-08 18:30:15.2070,-0.265,0.888,0.185,4.05,0.25,-0.98
2022-12-08 18:30:15.2170,-0.448,0.867,1.546,4.22,0.67,-4.15
2022-12-08 18:30:15.2270,-0.537,0.897,0.909,6.04,0.85,-17.62
2022-12-08 18:30:15.2370,-0.355,0.878,-0.214,6.91,0.54,-11.43
2022-12-08 18:30:15.2470,-0.297,0.93,-0.376,5.13,0.71,-0.48
2022-12-08 18:30:15.2590,-0.354,1.008,-0.391,4.61,0.17,1.06
2022-12-08 18:30:15.2670,-0.444,1.062,-0.358,5.26,-0.61,1.21
2022-12-08 18:30:15.2770,-0.541,1.054,-0.297,6.25,-1.15,0.93
2022-12-08 18:30:15.2870,-0.588,0.991,-0.258,7.29,-1.06,0.43
2022-12-08 18:30:15.2970,-0.594,0.926,-0.242,7.81,-0.42,0.16
2022-12-08 18:30:15.3070,-0.587,0.902,-0.234,7.88,0.24,0.15
2022-12-08 18:30:15.3170,-0.591,0.918,-0.232,7.81,0.5,0.19
2022-12-08 18:30:15.3270,-0.623,0.924,-0.179,7.81,0.38,0.28
2022-12-08 18:30:15.3370,-0.716,0.929,0.051,8.07,0.35,-0.19
2022-12-08 18:30:15.3470,-0.911,0.991,0.594,8.88,0.33,-2.39
2022-12-08 18:30:15.3570,-1.016,1.096,0.825,10.64,-0.24,-7.61
2022-12-08 18:30:15.3670,-0.842,1.195,0.309,11.47,-1.19,-9.71
2022-12-08 18:30:15.3770,-0.642,1.286,-0.15,9.53,-2.11,-4.48
2022-12-08 18:30:15.3870,-0.565,1.359,-0.227,7.3,-2.96,0.14
2022-12-08 18:30:15.3970,-0.495,1.402,-0.228,6.26,-3.63,0.96
2022-12-08 18:30:15.4070,-0.413,1.453,-0.227,5.25,-4.03,1.02
2022-12-08 18:30:15.4170,-0.348,1.528,-0.219,4.1,-4.52,1.05
2022-12-08 18:30:15.4270,-0.289,1.622,-0.204,3.1,-5.26,1.0
2022-12-08 18:30:15.4370,-0.222,1.746,-0.195,2.16,-6.19,0.9
2022-12-08 18:30:15.4470,-0.162,1.863,-0.208,1.12,-7.43,0.87
2022-12-08 18:30:15.4570,-0.097,1.936,-0.269,0.16,-8.62,1.07
2022-12-08 18:30:15.4670,0.019,1.971,-0.348,-0.83,-9.39,1.76
2022-12-08 18:30:15.4780,0.193,1.929,-0.355,-2.3,-9.79,2.62
2022-12-08 18:30:15.4870,0.302,1.81,-0.322,-4.3,-9.45,2.76
2022-12-08 18:30:15.4970,0.335,1.648,-0.257,-5.61,-8.34,2.47
2022-12-08 18:30:15.5070,0.328,1.478,-0.211,-6.15,-6.82,1.82
2022-12-08 18:30:15.5170,0.312,1.313,-0.141,-6.26,-5.21,1.33
2022-12-08 18:30:15.5270,0.319,1.172,-0.083,-6.28,-3.65,0.56
2022-12-08 18:30:15.5370,0.304,0.98,-0.054,-6.51,-2.34,-0.14
2022-12-08 18:30:15.5470,0.311,0.812,0.207,-6.54,-0.54,-0.61
2022-12-08 18:30:15.5570,0.368,0.754,0.408,-6.79,1.01,-3.35
2022-12-08 18:30:15.5670,0.42,0.772,0.302,-7.55,1.47,-5.42
2022-12-08 18:30:15.5770,0.446,0.793,0.156,-8.25,1.2,-4.43
2022-12-08 18:30:15.5870,0.468,0.785,0.037,-8.69,0.91,-2.98
2022-12-08 18:30:15.5970,0.46,0.762,-0.079,-9.05,0.92,-1.78
2022-12-08 18:30:15.6080,0.437,0.727,-0.19,-9.09,1.09,-0.59
2022-12-08 18:30:15.6180,0.407,0.691,-0.289,-8.96,1.39,0.53
2022-12-08 18:30:15.6270,0.346,0.644,-0.361,-8.72,1.71,1.49
2022-12-08 18:30:15.6380,0.266,0.601,-0.358,-8.14,2.15,2.13
2022-12-08 18:30:15.6480,0.168,0.567,-0.214,-7.35,2.56,1.98
2022-12-08 18:30:15.6580,0.089,0.538,0.075,-6.37,2.87,0.42
2022-12-08 18:30:15.6680,0.105,0.543,0.307,-5.56,3.14,-2.55
2022-12-08 18:30:15.6780,0.174,0.603,0.349,-5.68,3.09,-4.95
2022-12-08 18:30:15.6880,0.223,0.654,0.26,-6.3,2.51,-5.45
2022-12-08 18:30:15.6980,0.244,0.669,0.163,-6.72,2.02,-4.65
2022-12-08 18:30:15.7080,0.241,0.673,0.075,-6.86,1.9,-3.75
2022-12-08 18:30:15.7180,0.211,0.701,-0.022,-6.75,1.89,-2.94
2022-12-08 18:30:15.7280,0.144,0.746,-0.098,-6.35,1.65,-2.03
2022-12-08 18:30:15.7380,0.029,0.798,-0.12,-5.56,1.26,-1.36
2022-12-08 18:30:15.7480,-0.155,0.853,-0.107,-4.29,0.79,-1.23
2022-12-08 18:30:15.7580,-0.361,0.916,-0.249,-2.32,0.31,-1.43
2022-12-08 18:30:15.7680,-0.526,1.008,-0.513,-0.17,-0.26,-0.07
2022-12-08 18:30:15.7780,-0.682,1.115,-0.654,1.53,-1.12,2.54
2022-12-08 18:30:15.7880,-0.899,1.227,-0.662,3.06,-2.16,4.0
2022-12-08 18:30:15.7980,-1.132,1.319,-0.638,5.13,-3.24,4.21
2022-12-08 18:30:15.8080,-1.295,1.232,-0.56,7.36,-4.12,4.15
2022-12-08 18:30:15.8180,-1.523,1.002,-0.527,9.01,-3.22,3.51
2022-12-08 18:30:15.8280,-1.783,0.816,-0.442,11.46,-0.88,3.21
2022-12-08 18:30:15.8380,-1.901,0.727,-0.331,14.27,1.02,2.27
2022-12-08 18:30:15.8480,-1.859,0.633,-0.249,15.68,1.95,1.02
2022-12-08 18:30:15.8580,-1.679,0.626,-0.165,15.45,2.89,0.06
2022-12-08 18:30:15.8680,-1.294,0.762,-0.094,13.77,2.94,-0.9
2022-12-08 18:30:15.8780,-0.816,0.9,0.015,9.96,1.59,-1.66
2022-12-08 18:30:15.8880,-0.464,0.985,0.126,5.19,0.2,-2.72
2022-12-08 18:30:15.8980,-0.311,1.125,0.154,1.62,-0.64,-3.73
2022-12-08 18:30:15.9080,-0.303,1.391,0.094,0.0,-2.02,-3.87
2022-12-08 18:30:15.9180,-0.337,1.674,-0.063,-0.2,-4.63,-3.11
2022-12-08 18:30:15.9280,-0.308,1.805,-0.204,0.01,-7.4,-1.39
2022-12-08 18:30:15.9380,-0.18,1.689,-0.301,-0.39,-8.7,0.13
2022-12-08 18:30:15.9480,0.037,1.39,-0.334,-1.74,-7.59,1.12
2022-12-08 18:30:15.9580,0.249,1.129,-0.107,-3.93,-4.71,1.35
2022-12-08 18:30:15.9680,0.444,0.946,0.274,-6.02,-2.19,-1.05
2022-12-08 18:30:15.9780,0.595,0.804,0.557,-7.89,-0.41,-4.93
2022-12-08 18:30:15.9880,0.627,0.739,0.454,-9.28,1.0,-7.78
2022-12-08 18:30:15.9980,0.507,0.79,0.197,-9.46,1.69,-6.77
2022-12-08 18:30:16.0080,0.351,0.922,0.054,-8.11,1.25,-4.22
2022-12-08 18:30:16.0180,0.239,1.047,0.009,-6.4,0.03,-2.79
2022-12-08 18:30:16.0280,0.168,1.129,0.021,-5.12,-1.13,-2.31
2022-12-08 18:30:16.0390,0.132,1.166,0.04,-4.26,-1.87,-2.38
2022-12-08 18:30:16.0490,0.127,1.156,0.039,-3.79,-2.19,-2.49
2022-12-08 18:30:16.0580,0.177,1.108,0.023,-3.64,-2.05,-2.39
2022-12-08 18:30:16.0690,0.204,1.05,-0.005,-4.03,-1.52,-2.12
2022-12-08 18:30:16.0790,0.172,1.017,-0.034,-4.2,-0.91,-1.72
2022-12-08 18:30:16.0890,0.132,0.997,-0.043,-3.79,-0.53,-1.28
2022-12-08 18:30:16.0990,0.123,0.979,-0.053,-3.3,-0.29,-1.04
2022-12-08 18:30:16.1090,0.117,0.979,-0.08,-3.1,-0.07,-0.77
2022-12-08 18:30:16.1190,0.118,0.995,-0.131,-2.93,-0.02,-0.32
2022-12-08 18:30:16.1290,0.123,1.004,-0.222,-2.81,-0.14,0.35
2022-12-08 18:30:16.1390,0.076,1.023,-0.305,-2.73,-0.2,1.39
2022-12-08 18:30:16.1490,0.049,1.051,-0.354,-2.13,-0.35,2.34
2022-12-08 18:30:16.1590,0.011,1.065,-0.366,-1.73,-0.6,2.91
2022-12-08 18:30:16.1690,-0.024,1.063,-0.398,-1.22,-0.72,3.08
2022-12-08 18:30:16.1790,-0.039,1.04,-0.513,-0.75,-0.69,3.4
2022-12-08 18:30:16.1890,-0.066,1.011,-0.646,-0.47,-0.45,4.48
2022-12-08 18:30:16.1990,-0.115,0.98,-0.648,-0.07,-0.16,5.69
2022-12-08 18:30:16.2090,-0.141,0.955,-0.559,0.53,0.14,5.56
2022-12-08 18:30:16.2190,-0.157,0.932,-0.465,0.91,0.37,4.51
2022-12-08 18:30:16.2310,-0.184,0.92,-0.379,1.21,0.59,3.39
2022-12-08 18:30:16.2390,-0.231,0.913,-0.282,1.62,0.69,2.37
2022-12-08 18:30:16.2490,-0.276,0.914,-0.203,2.25,0.73,1.27
2022-12-08 18:30:16.2590,-0.303,0.918,-0.162,2.86,0.7,0.37
2022-12-08 18:30:16.2690,-0.312,0.918,-0.132,3.3,0.65,-0.13
2022-12-08 18:30:16.2790,-0.288,0.919,-0.098,3.53,0.62,-0.51
2022-12-08 18:30:16.2890,-0.245,0.922,-0.069,3.44,0.59,-0.93
2022-12-08 18:30:16.2990,-0.201,0.92,-0.041,3.14,0.53,-1.28
2022-12-08 18:30:16.3090,-0.119,0.896,0.184,2.84,0.52,-1.64
2022-12-08 18:30:16.3190,0.179,0.866,1.271,2.15,0.74,-3.94
2022-12-08 18:30:16.3290,0.146,0.902,0.938,-0.71,1.0,-14.68
2022-12-08 18:30:16.3390,-0.138,0.967,0.113,-0.34,0.62,-11.51
2022-12-08 18:30:16.3490,-0.255,0.958,-0.076,2.5,-0.05,-3.53
2022-12-08 18:30:16.3590,-0.289,0.985,-0.186,3.71,0.0,-1.78
2022-12-08 18:30:16.3690,-0.335,1.032,-0.252,4.13,-0.29,-0.75
2022-12-08 18:30:16.3790,-0.398,1.038,-0.257,4.69,-0.77,-0.11
2022-12-08 18:30:16.3890,-0.461,1.021,-0.248,5.42,-0.84,-0.02
2022-12-08 18:30:16.3990,-0.53,1.016,-0.27,6.15,-0.67,-0.02
2022-12-08 18:30:16.4090,-0.602,1.051,-0.338,6.91,-0.6,0.32
2022-12-08 18:30:16.4190,-0.659,1.094,-0.419,7.65,-0.91,1.13
2022-12-08 18:30:16.4290,-0.703,1.135,-0.472,8.22,-1.3,2.06
2022-12-08 18:30:16.4410,-0.741,1.17,-0.476,8.61,-1.67,2.69
2022-12-08 18:30:16.4500,-0.768,1.198,-0.431,8.9,-1.99,2.81
2022-12-08 18:30:16.4600,-0.777,1.208,-0.356,9.05,-2.23,2.42
2022-12-08 18:30:16.4690,-0.76,1.196,-0.269,8.99,-2.31,1.7
2022-12-08 18:30:16.4790,-0.795,1.184,0.049,8.65,-2.17,0.83
2022-12-08 18:30:16.4900,-0.987,1.232,1.38,8.79,-2.02,-2.26
2022-12-08 18:30:16.4990,-0.681,1.202,0.532,10.47,-2.45,-15.15
2022-12-08 18:30:16.5100,-0.469,1.165,-0.078,7.23,-2.11,-6.68
2022-12-08 18:30:16.5200,-0.403,1.204,0.01,4.89,-1.72,-0.6
2022-12-08 18:30:16.5300,-0.335,1.254,0.042,3.94,-2.09,-1.4
2022-12-08 18:30:16.5400,-0.28,1.327,0.065,2.1,-3.31,-1.82
2022-12-08 18:30:16.5520,-0.243,1.424,0.044,1.39,-4.27,-1.54
2022-12-08 18:30:16.5620,-0.205,1.532,-0.014,0.66,-5.37,-0.88
2022-12-08 18:30:16.5720,-0.163,1.63,-0.083,0.66,-5.37,-0.88
2022-12-08 18:30:16.5800,-0.104,1.704,-0.163,-0.1,-6.37,-0.1
2022-12-08 18:30:16.5900,0.013,1.742,-0.256,-1.0,-7.16,0.8
2022-12-08 18:30:16.6000,0.155,1.737,-0.324,-2.46,-7.59,1.81
2022-12-08 18:30:16.6100,0.237,1.673,-0.34,-4.11,-7.6,2.56
2022-12-08 18:30:16.6200,0.246,1.566,-0.319,-5.15,-7.04,2.75
2022-12-08 18:30:16.6300,0.262,1.441,-0.267,-5.44,-6.06,2.54
2022-12-08 18:30:16.6400,0.276,1.314,-0.21,-5.79,-4.89,2.0
2022-12-08 18:30:16.6500,0.279,1.192,-0.192,-6.3,-2.59,1.15
2022-12-08 18:30:16.6610,0.302,1.077,-0.191,-6.3,-2.59,1.15
2022-12-08 18:30:16.6700,0.321,0.946,-0.194,-6.7,-1.53,1.07
2022-12-08 18:30:16.6800,0.342,0.814,-0.176,-7.06,-0.33,1.0
2022-12-08 18:30:16.6900,0.359,0.756,-0.068,-7.43,0.88,0.7
2022-12-08 18:30:16.7000,0.291,0.696,0.343,-7.77,1.35,-0.51
2022-12-08 18:30:16.7100,0.213,0.645,0.655,-7.25,1.85,-4.61
2022-12-08 18:30:16.7200,0.23,0.639,0.411,-6.64,2.27,-7.65
2022-12-08 18:30:16.7300,0.248,0.631,0.134,-6.95,2.27,-5.19
2022-12-08 18:30:16.7400,0.266,0.611,-0.019,-7.22,2.29,-2.42
2022-12-08 18:30:16.7500,0.252,0.584,-0.077,-7.48,2.45,-0.9
2022-12-08 18:30:16.7600,0.248,0.563,-0.055,-7.39,2.68,-0.36
2022-12-08 18:30:16.7700,0.284,0.561,0.004,-7.4,2.86,-0.6
2022-12-08 18:30:16.7800,0.331,0.575,0.061,-7.77,2.86,-1.21
2022-12-08 18:30:16.7900,0.369,0.599,0.079,-8.24,2.71,-1.8
2022-12-08 18:30:16.8000,0.374,0.621,0.052,-8.61,2.48,-2.0
2022-12-08 18:30:16.8100,0.34,0.633,0.003,-8.63,2.28,-1.76
2022-12-08 18:30:16.8200,0.296,0.648,-0.054,-8.25,2.19,-1.3
2022-12-08 18:30:16.8300,0.234,0.671,-0.075,-7.74,2.08,-0.78
2022-12-08 18:30:16.8400,0.132,0.711,-0.037,-7.04,1.9,-0.62
2022-12-08 18:30:16.8500,-0.052,0.768,0.011,-5.92,1.56,-1.06
2022-12-08 18:30:16.8600,-0.34,0.811,-0.045,-3.99,1.05,-1.6
2022-12-08 18:30:16.8700,-0.623,0.86,-0.245,-1.06,0.67,-1.09
2022-12-08 18:30:16.8810,-0.849,0.94,-0.506,1.77,0.23,0.88
2022-12-08 18:30:16.8910,-1.074,1.065,-0.639,3.96,-0.56,3.5
2022-12-08 18:30:16.9000,-1.404,1.231,-0.623,6.09,-1.81,4.93
2022-12-08 18:30:16.9110,-1.878,1.274,-0.572,9.3,-3.43,4.88
2022-12-08 18:30:16.9210,-2.258,1.142,-0.569,14.06,-3.8,4.4
2022-12-08 18:30:16.9310,-2.448,0.879,-0.494,18.0,-2.41,4.31
2022-12-08 18:30:16.9430,-2.291,0.601,-0.393,20.08,0.25,3.44
2022-12-08 18:30:16.9510,-1.861,0.369,-0.263,18.69,3.02,2.29
2022-12-08 18:30:16.9610,-1.247,0.433,-0.069,14.55,5.29,0.86
2022-12-08 18:30:16.9710,-0.756,0.897,0.198,8.54,4.65,-1.16
2022-12-08 18:30:16.9810,-0.468,1.299,0.403,3.7,0.08,-3.83
2022-12-08 18:30:16.9910,-0.273,1.603,0.441,0.83,-3.88,-5.8
2022-12-08 18:30:17.0010,-0.305,1.845,0.134,-1.18,-6.87,-6.06
2022-12-08 18:30:17.0110,-0.345,1.945,-0.179,-1.0,-9.28,-2.93
2022-12-08 18:30:17.0210,-0.063,1.749,-0.163,-0.76,-10.33,0.19
2022-12-08 18:30:17.0310,0.237,1.371,0.123,-3.62,-8.46,0.01
2022-12-08 18:30:17.0410,0.358,1.112,0.337,-6.61,-4.78,-2.85
2022-12-08 18:30:17.0510,0.327,0.947,0.165,-7.8,-2.25,-4.97
2022-12-08 18:30:17.0610,0.299,0.834,-0.031,-7.48,-0.62,-3.3
2022-12-08 18:30:17.0710,0.344,0.774,-0.095,-7.16,0.51,-1.38
2022-12-08 18:30:17.0810,0.395,0.741,-0.119,-7.51,1.13,-0.77
2022-12-08 18:30:17.0910,0.377,0.762,-0.14,-7.9,1.51,-0.58
2022-12-08 18:30:17.1010,0.297,0.853,-0.136,-7.57,1.36,-0.44
2022-12-08 18:30:17.1110,0.2,0.969,-0.084,-6.61,0.52,-0.54
2022-12-08 18:30:17.1210,0.148,1.075,-0.034,-5.51,-0.56,-1.08
2022-12-08 18:30:17.1310,0.141,1.153,-0.018,-4.86,-1.54,-1.56
2022-12-08 18:30:17.1410,0.149,1.191,-0.018,-4.68,-2.26,-1.67
2022-12-08 18:30:17.1510,0.142,1.203,-0.032,-4.64,-2.57,-1.57
2022-12-08 18:30:17.1610,0.113,1.19,-0.063,-4.46,-2.63,-1.29
2022-12-08 18:30:17.1710,0.087,1.153,-0.095,-4.07,-2.44,-0.84
2022-12-08 18:30:17.1810,0.077,1.099,-0.117,-3.69,-2.01,-0.37
2022-12-08 18:30:17.1910,0.062,1.035,-0.125,-3.46,-1.43,-0.01
2022-12-08 18:30:17.2010,0.029,0.981,-0.115,-3.19,-0.75,0.2
2022-12-08 18:30:17.2110,0.001,0.956,-0.102,-2.72,-0.16,0.21
2022-12-08 18:30:17.2210,-0.027,0.964,-0.096,-2.31,0.12,0.18
2022-12-08 18:30:17.2310,-0.029,0.974,-0.102,-1.9,0.08,0.22
2022-12-08 18:30:17.2410,-0.06,0.984,-0.119,-1.73,0.02,0.37
2022-12-08 18:30:17.2510,-0.102,0.987,-0.129,-1.28,-0.04,0.61
2022-12-08 18:30:17.2610,-0.136,0.985,-0.169,-0.7,-0.04,0.79
2022-12-08 18:30:17.2710,-0.153,0.978,-0.238,-0.22,0.01,1.26
2022-12-08 18:30:17.2810,-0.134,0.966,-0.297,0.1,0.1,1.98
2022-12-08 18:30:17.2910,-0.117,0.956,-0.38,0.08,0.24,2.58
2022-12-08 18:30:17.3010,-0.137,0.947,-0.46,0.07,0.36,3.36
2022-12-08 18:30:17.3110,-0.175,0.945,-0.451,0.45,0.47,4.06
2022-12-08 18:30:17.3220,-0.201,0.944,-0.399,0.98,0.49,3.85
2022-12-08 18:30:17.3320,-0.234,0.929,-0.348,1.41,0.5,3.18
2022-12-08 18:30:17.3410,-0.25,0.903,-0.288,1.9,0.65,2.51
2022-12-08 18:30:17.3520,-0.25,0.889,-0.225,2.24,0.88,1.75
2022-12-08 18:30:17.3620,-0.258,0.893,-0.177,2.41,1.01,1.0
2022-12-08 18:30:17.3720,-0.269,0.901,-0.145,2.66,0.96,0.41
2022-12-08 18:30:17.3820,-0.259,0.916,-0.131,2.92,0.86,0.01
2022-12-08 18:30:17.3920,-0.231,0.928,-0.121,2.97,0.7,-0.18
2022-12-08 18:30:17.4020,-0.195,0.934,-0.103,2.84,0.57,-0.3
2022-12-08 18:30:17.4120,-0.163,0.934,-0.079,2.62,0.5,-0.51
2022-12-08 18:30:17.4220,-0.12,0.926,0.076,2.46,0.48,-0.77
2022-12-08 18:30:17.4320,-0.104,0.913,0.861,2.18,0.54,-2.32
2022-12-08 18:30:17.4420,-0.34,0.949,0.816,2.13,0.65,-10.07
2022-12-08 18:30:17.4520,-0.37,0.943,0.079,4.89,0.31,-2.53
2022-12-08 18:30:17.4640,-0.292,0.979,-0.212,4.89,0.31,-2.53
2022-12-08 18:30:17.4720,-0.314,1.053,-0.3,4.19,-0.07,0.24
2022-12-08 18:30:17.4820,-0.372,1.103,-0.315,4.49,-0.81,1.06
2022-12-08 18:30:17.4920,-0.438,1.103,-0.3,5.15,-1.31,1.21
2022-12-08 18:30:17.5020,-0.495,1.069,-0.292,5.87,-1.32,1.11
2022-12-08 18:30:17.5120,-0.528,1.028,-0.314,6.5,-0.98,1.11
2022-12-08 18:30:17.5220,-0.555,1.033,-0.347,6.85,-0.56,1.43
2022-12-08 18:30:17.5320,-0.584,1.074,-0.351,7.13,-0.6,1.86
2022-12-08 18:30:17.5420,-0.61,1.091,-0.322,7.41,-0.99,1.99
2022-12-08 18:30:17.5520,-0.625,1.046,-0.271,7.62,-1.13,1.78
2022-12-08 18:30:17.5620,-0.637,0.977,-0.194,7.71,-0.67,1.35
2022-12-08 18:30:17.5720,-0.78,0.949,0.192,7.75,0.02,0.63
2022-12-08 18:30:17.5820,-1.165,0.993,1.092,9.03,0.32,-3.08
2022-12-08 18:30:17.5920,-1.016,1.037,0.48,12.65,-0.07,-11.72
2022-12-08 18:30:17.6020,-0.758,1.096,-0.184,10.99,-0.46,-5.54
2022-12-08 18:30:17.6120,-0.719,1.158,-0.192,8.24,-1.01,1.09
2022-12-08 18:30:17.6220,-0.635,1.211,-0.166,7.59,-1.59,1.24
2022-12-08 18:30:17.6320,-0.568,1.298,-0.178,6.46,-2.1,1.04
2022-12-08 18:30:17.6420,-0.516,1.411,-0.208,5.46,-2.94,1.22
2022-12-08 18:30:17.6520,-0.44,1.522,-0.247,4.59,-4.06,1.58
2022-12-08 18:30:17.6620,-0.345,1.62,-0.297,3.46,-5.17,2.04
2022-12-08 18:30:17.6720,-0.241,1.695,-0.362,2.14,-6.17,2.63
2022-12-08 18:30:17.6820,-0.126,1.721,-0.423,0.76,-6.96,3.36
2022-12-08 18:30:17.6920,0.023,1.716,-0.475,-0.72,-7.28,4.06
2022-12-08 18:30:17.7020,0.163,1.706,-0.545,-2.49,-7.29,4.66
2022-12-08 18:30:17.7130,0.223,1.674,-0.586,-4.15,-7.27,5.4
2022-12-08 18:30:17.7220,0.239,1.608,-0.587,-4.98,-7.03,5.81
2022-12-08 18:30:17.7320,0.278,1.518,-0.562,-5.36,-6.44,5.78
2022-12-08 18:30:17.7420,0.299,1.406,-0.513,-5.94,-5.62,5.45
2022-12-08 18:30:17.7530,0.303,1.285,-0.454,-6.32,-4.59,4.88
2022-12-08 18:30:17.7630,0.326,1.185,-0.345,-6.52,-3.47,4.19
2022-12-08 18:30:17.7730,0.34,1.091,-0.202,-6.89,-2.55,3.01
2022-12-08 18:30:17.7830,0.358,0.987,-0.112,-7.16,-1.69,1.5
2022-12-08 18:30:17.7930,0.385,0.886,-0.078,-7.46,-0.73,0.52
2022-12-08 18:30:17.8030,0.421,0.804,-0.068,-7.84,0.21,0.09
2022-12-08 18:30:17.8130,0.419,0.728,-0.072,-8.3,0.95,-0.11
2022-12-08 18:30:17.8230,0.373,0.659,0.001,-8.37,1.65,-0.2
2022-12-08 18:30:17.8330,0.309,0.641,0.263,-7.99,2.28,-1.04
2022-12-08 18:30:17.8430,0.237,0.639,0.438,-7.45,2.4,-3.68
2022-12-08 18:30:17.8530,0.257,0.666,0.269,-6.82,2.38,-5.41
2022-12-08 18:30:17.8630,0.278,0.695,0.119,-7.09,2.07,-3.76
2022-12-08 18:30:17.8730,0.272,0.705,0.054,-7.34,1.76,-2.31
2022-12-08 18:30:17.8830,0.256,0.705,0.064,-7.3,1.64,-1.73
2022-12-08 18:30:17.8930,0.261,0.709,0.124,-7.13,1.64,-1.94
2022-12-08 18:30:17.9030,0.299,0.722,0.203,-7.15,1.59,-2.63
2022-12-08 18:30:17.9130,0.343,0.719,0.271,-7.5,1.47,-3.49
2022-12-08 18:30:17.9230,0.364,0.714,0.322,-7.88,1.51,-4.22
2022-12-08 18:30:17.9330,0.35,0.716,0.356,-8.04,1.58,-4.75
2022-12-08 18:30:17.9430,0.301,0.728,0.311,-7.84,1.59,-5.09
2022-12-08 18:30:17.9530,0.243,0.769,0.105,-7.28,1.52,-4.63
2022-12-08 18:30:17.9630,0.182,0.811,-0.181,-6.61,1.16,-2.63
2022-12-08 18:30:17.9730,0.104,0.83,-0.325,-5.89,0.8,0.11
2022-12-08 18:30:17.9830,-0.04,0.843,-0.315,-4.98,0.66,1.4
2022-12-08 18:30:17.9930,-0.228,0.886,-0.398,-3.4,0.56,1.15
2022-12-08 18:30:18.0030,-0.419,0.968,-0.542,-1.4,0.18,1.84
2022-12-08 18:30:18.0130,-0.666,1.118,-0.597,0.58,-0.59,3.21
2022-12-08 18:30:18.0230,-0.92,1.287,-0.616,3.03,-2.05,3.76
2022-12-08 18:30:18.0330,-1.131,1.424,-0.608,5.48,-3.7,4.04
2022-12-08 18:30:18.0430,-1.379,1.348,-0.644,7.54,-5.02,4.13
2022-12-08 18:30:18.0530,-1.679,1.069,-0.64,10.05,-4.21,4.63
2022-12-08 18:30:18.0630,-1.946,0.835,-0.524,13.16,-1.39,4.67
2022-12-08 18:30:18.0730,-1.961,0.703,-0.363,15.98,0.96,3.5
2022-12-08 18:30:18.0830,-1.831,0.706,-0.191,16.32,2.3,1.78
2022-12-08 18:30:18.0930,-1.7,0.871,-0.062,15.19,2.27,-0.11
2022-12-08 18:30:18.1030,-1.398,1.033,0.013,13.97,0.63,-1.57
2022-12-08 18:30:18.1130,-0.97,1.116,0.11,10.98,-1.0,-2.45
2022-12-08 18:30:18.1230,-0.596,1.205,0.33,6.71,-1.86,-3.48
2022-12-08 18:30:18.1330,-0.356,1.275,0.522,2.96,-2.76,-5.62
2022-12-08 18:30:18.1430,-0.257,1.23,0.408,0.54,-3.44,-7.41
2022-12-08 18:30:18.1540,-0.191,1.167,0.128,-0.47,-2.98,-6.13
2022-12-08 18:30:18.1640,-0.13,1.141,-0.207,-1.15,-2.32,-3.21
2022-12-08 18:30:18.1740,-0.044,1.133,-0.299,-1.77,-2.07,0.07
2022-12-08 18:30:18.1840,0.234,1.161,0.334,-2.62,-2.04,0.77
2022-12-08 18:30:18.1940,0.56,1.162,0.841,-5.35,-2.38,-5.66
2022-12-08 18:30:18.2030,0.553,1.07,0.647,-8.53,-2.42,-10.76
2022-12-08 18:30:18.2140,0.402,0.99,0.217,-8.43,-1.51,-8.89
2022-12-08 18:30:18.2240,0.308,0.995,0.022,-5.93,-0.73,-2.7
2022-12-08 18:30:18.2360,0.26,1.038,-0.033,-5.93,-0.73,-2.7
2022-12-08 18:30:18.2440,0.233,1.115,-0.028,-5.39,-1.12,-2.1
2022-12-08 18:30:18.2540,0.202,1.201,-0.009,-5.08,-1.83,-2.06
2022-12-08 18:30:18.2640,0.199,1.244,-0.015,-4.72,-2.63,-2.14
2022-12-08 18:30:18.2740,0.242,1.224,-0.058,-4.65,-3.01,-1.95
2022-12-08 18:30:18.2840,0.297,1.191,-0.107,-5.03,-2.77,-1.37
2022-12-08 18:30:18.2940,0.323,1.169,-0.14,-5.5,-2.39,-0.75
2022-12-08 18:30:18.3040,0.301,1.132,-0.136,-5.67,-2.13,-0.28
2022-12-08 18:30:18.3140,0.277,1.087,-0.131,-5.34,-1.71,-0.18
2022-12-08 18:30:18.3240,0.299,1.066,-0.168,-4.99,-1.22,-0.11
2022-12-08 18:30:18.3340,0.32,1.051,-0.2,-5.06,-0.97,0.36
2022-12-08 18:30:18.3440,0.321,1.046,-0.218,-5.11,-0.78,0.75
2022-12-08 18:30:18.3540,0.333,1.048,-0.237,-4.88,-0.67,1.23
2022-12-08 18:30:18.3660,0.363,1.04,-0.286,-4.88,-0.67,1.23
2022-12-08 18:30:18.3740,0.329,1.031,-0.297,-5.0,-0.56,1.77
2022-12-08 18:30:18.3840,0.289,1.021,-0.297,-4.47,-0.44,1.92
2022-12-08 18:30:18.3940,0.244,1.001,-0.315,-3.9,-0.32,1.97
2022-12-08 18:30:18.4040,0.161,0.972,-0.322,-3.27,-0.1,2.18
2022-12-08 18:30:18.4140,0.113,0.919,-0.357,-2.3,0.21,2.29
2022-12-08 18:30:18.4240,0.054,0.894,-0.393,-1.67,0.74,2.66
2022-12-08 18:30:18.4340,-0.016,0.903,-0.397,-0.94,0.99,3.03
2022-12-08 18:30:18.4440,-0.057,0.921,-0.371,-0.12,0.91,3.05
2022-12-08 18:30:18.4540,-0.078,0.943,-0.34,0.76,0.51,2.36
2022-12-08 18:30:18.4660,-0.103,0.977,-0.316,0.76,0.51,2.36
2022-12-08 18:30:18.4740,-0.149,1.013,-0.285,1.16,0.15,2.01
2022-12-08 18:30:18.4840,-0.193,1.038,-0.237,1.77,-0.21,1.56
2022-12-08 18:30:18.4940,-0.221,1.044,-0.182,2.36,-0.48,0.93
2022-12-08 18:30:18.5040,-0.245,1.036,-0.14,2.81,-0.59,0.21
2022-12-08 18:30:18.5140,-0.341,0.989,0.225,3.23,-0.55,-0.4
2022-12-08 18:30:18.5240,-0.593,0.886,1.19,4.31,-0.15,-4.16
2022-12-08 18:30:18.5340,-0.507,0.815,0.659,6.84,0.85,-13.73
2022-12-08 18:30:18.5440,-0.32,0.764,-0.063,6.01,1.52,-8.6
2022-12-08 18:30:18.5540,-0.277,0.804,-0.152,4.21,1.99,-1.62
2022-12-08 18:30:18.5650,-0.321,0.895,-0.062,3.85,1.57,-0.82
2022-12-08 18:30:18.5740,-0.394,0.981,0.018,4.37,0.66,-1.73
2022-12-08 18:30:18.5840,-0.449,1.031,-0.03,5.2,-0.18,-2.47
2022-12-08 18:30:18.5950,-0.463,1.053,-0.134,5.86,-0.67,-1.89
2022-12-08 18:30:18.6050,-0.476,1.053,-0.203,6.1,-0.87,-0.76
2022-12-08 18:30:18.6150,-0.487,1.034,-0.235,6.31,-0.86,0.03
2022-12-08 18:30:18.6250,-0.479,1.021,-0.259,6.48,-0.67,0.41
2022-12-08 18:30:18.6350,-0.458,1.011,-0.308,6.43,-0.54,0.72
2022-12-08 18:30:18.6450,-0.42,1.004,-0.364,6.24,-0.44,1.24
2022-12-08 18:30:18.6550,-0.395,1.051,-0.391,5.85,-0.36,1.83
2022-12-08 18:30:18.6650,-0.404,1.148,-0.367,5.59,-0.81,2.12
2022-12-08 18:30:18.6740,-0.438,1.203,-0.307,5.64,-1.75,1.92
2022-12-08 18:30:18.6840,-0.467,1.171,-0.242,5.93,-2.27,1.35
2022-12-08 18:30:18.6950,-0.491,1.098,-0.169,6.13,-1.95,0.73
2022-12-08 18:30:18.7050,-0.561,1.04,-0.007,6.27,-1.21,0.02
2022-12-08 18:30:18.7150,-0.72,1.005,0.382,6.83,-0.62,-1.54
2022-12-08 18:30:18.7250,-0.914,1.003,0.841,8.22,-0.24,-5.27
2022-12-08 18:30:18.7350,-0.827,1.019,0.535,9.91,-0.17,-9.6
2022-12-08 18:30:18.7450,-0.626,1.107,-0.06,8.84,-0.29,-6.43
2022-12-08 18:30:18.7550,-0.607,1.241,-0.197,6.64,-1.13,-0.48
2022-12-08 18:30:18.7650,-0.59,1.327,-0.181,6.2,-2.43,0.93
2022-12-08 18:30:18.7750,-0.503,1.37,-0.169,5.75,-3.26,0.84
2022-12-08 18:30:18.7850,-0.411,1.418,-0.183,4.57,-3.68,0.77
2022-12-08 18:30:18.7950,-0.327,1.49,-0.21,3.32,-4.16,0.97
2022-12-08 18:30:18.8050,-0.239,1.572,-0.247,2.13,-4.9,1.31
2022-12-08 18:30:18.8150,-0.141,1.646,-0.293,0.9,-5.75,1.75
2022-12-08 18:30:18.8250,-0.023,1.694,-0.354,-0.41,-6.53,2.3
2022-12-08 18:30:18.8350,0.107,1.7,-0.412,-1.89,-7.06,3.0
2022-12-08 18:30:18.8450,0.208,1.691,-0.452,-3.46,-7.18,3.65
2022-12-08 18:30:18.8550,0.251,1.654,-0.477,-4.71,-7.16,4.08
2022-12-08 18:30:18.8650,0.254,1.572,-0.469,-5.36,-6.86,4.33
2022-12-08 18:30:18.8750,0.262,1.445,-0.404,-5.58,-6.13,4.21
2022-12-08 18:30:18.8850,0.261,1.294,-0.354,-5.83,-4.94,3.5
2022-12-08 18:30:18.8950,0.253,1.155,-0.315,-5.99,-3.52,2.92
2022-12-08 18:30:18.9050,0.249,1.04,-0.267,-6.06,-2.23,2.43
2022-12-08 18:30:18.9150,0.257,0.938,-0.201,-6.17,-1.17,1.85
2022-12-08 18:30:18.9250,0.275,0.844,-0.128,-6.4,-0.24,1.1
2022-12-08 18:30:18.9350,0.299,0.787,-0.08,-6.71,0.62,0.29
2022-12-08 18:30:18.9450,0.317,0.775,-0.01,-7.08,1.11,-0.3
2022-12-08 18:30:18.9550,0.316,0.769,0.076,-7.38,1.15,-1.09
2022-12-08 18:30:18.9650,0.226,0.74,0.316,-7.47,1.15,-2.02
2022-12-08 18:30:18.9750,0.109,0.712,0.529,-6.69,1.37,-4.4
2022-12-08 18:30:18.9850,0.139,0.711,0.309,-5.66,1.59,-6.44
2022-12-08 18:30:18.9950,0.173,0.699,0.066,-6.04,1.56,-4.23
2022-12-08 18:30:19.0060,0.179,0.671,-0.054,-6.45,1.64,-1.83
2022-12-08 18:30:19.0160,0.17,0.643,-0.07,-6.54,1.9,-0.72
2022-12-08 18:30:19.0260,0.186,0.634,-0.017,-6.45,2.15,-0.67
2022-12-08 18:30:19.0360,0.248,0.643,0.046,-6.59,2.22,-1.31
2022-12-08 18:30:19.0460,0.314,0.657,0.087,-7.17,2.14,-2.05
2022-12-08 18:30:19.0560,0.352,0.673,0.097,-7.78,2.0,-2.55
2022-12-08 18:30:19.0660,0.35,0.688,0.089,-8.09,1.85,-2.74
2022-12-08 18:30:19.0760,0.327,0.693,0.103,-8.0,1.73,-2.73
2022-12-08 18:30:19.0860,0.275,0.705,0.138,-7.68,1.72,-2.93
2022-12-08 18:30:19.0960,0.184,0.738,0.152,-7.07,1.63,-3.31
2022-12-08 18:30:19.1060,0.065,0.801,0.053,-6.08,1.36,-3.48
2022-12-08 18:30:19.1160,-0.069,0.864,-0.118,-4.79,0.79,-2.56
2022-12-08 18:30:19.1260,-0.243,0.911,-0.253,-3.34,0.22,-0.94
2022-12-08 18:30:19.1360,-0.443,0.992,-0.492,-1.51,-0.2,0.33
2022-12-08 18:30:19.1460,-0.64,1.118,-0.669,0.53,-0.96,2.67
2022-12-08 18:30:19.1560,-0.874,1.283,-0.676,2.48,-2.18,4.46
2022-12-08 18:30:19.1660,-1.117,1.428,-0.679,4.74,-3.77,4.66
2022-12-08 18:30:19.1760,-1.357,1.386,-0.642,7.13,-5.16,4.88
2022-12-08 18:30:19.1860,-1.626,1.155,-0.624,9.57,-4.67,4.69
2022-12-08 18:30:19.1960,-1.945,0.885,-0.623,12.41,-2.31,4.6
2022-12-08 18:30:19.2060,-2.038,0.703,-0.484,15.78,0.42,4.51
2022-12-08 18:30:19.2180,-1.922,0.563,-0.315,16.91,2.24,2.97
2022-12-08 18:30:19.2260,-1.714,0.539,-0.169,15.96,3.63,1.09
2022-12-08 18:30:19.2360,-1.472,0.708,-0.077,14.03,3.85,-0.56
2022-12-08 18:30:19.2460,-1.051,0.857,-0.01,11.66,2.15,-1.62
2022-12-08 18:30:19.2560,-0.62,0.914,0.102,7.45,0.64,-2.35
2022-12-08 18:30:19.2660,-0.42,1.068,0.214,3.1,0.05,-3.44
2022-12-08 18:30:19.2760,-0.431,1.31,0.182,1.0,-1.47,-4.45
2022-12-08 18:30:19.2860,-0.395,1.49,0.047,0.99,-3.86,-3.98
2022-12-08 18:30:19.2960,-0.265,1.58,-0.068,0.52,-5.63,-2.47
2022-12-08 18:30:19.3060,-0.135,1.506,-0.229,-0.85,-6.5,-1.16
2022-12-08 18:30:19.3160,0.037,1.28,-0.266,-2.2,-5.8,0.44
2022-12-08 18:30:19.3260,0.346,1.046,0.395,-3.91,-3.63,0.61
2022-12-08 18:30:19.3360,0.676,0.912,0.985,-6.92,-1.39,-6.12
2022-12-08 18:30:19.3460,0.684,0.782,0.78,-10.1,-0.09,-12.07
2022-12-08 18:30:19.3560,0.523,0.721,0.282,-10.09,1.2,-10.13
2022-12-08 18:30:19.3660,0.399,0.778,0.046,-8.41,1.83,-5.26
2022-12-08 18:30:19.3760,0.235,0.922,-0.047,-7.08,1.32,-2.93
2022-12-08 18:30:19.3860,0.101,1.088,-0.045,-5.36,-0.05,-1.98
2022-12-08 18:30:19.3960,0.03,1.203,-0.026,-3.96,-1.63,-1.94
2022-12-08 18:30:19.4060,0.019,1.257,-0.024,-3.22,-2.71,-2.01
2022-12-08 18:30:19.4160,0.049,1.263,-0.04,-3.09,-3.2,-1.86
2022-12-08 18:30:19.4270,0.074,1.251,-0.068,-3.37,-3.22,-1.53
2022-12-08 18:30:19.4370,0.089,1.242,-0.092,-3.6,-3.05,-1.04
2022-12-08 18:30:19.4460,0.093,1.222,-0.127,-3.7,-2.91,-0.59
2022-12-08 18:30:19.4570,0.089,1.179,-0.153,-3.68,-2.67,-0.06
2022-12-08 18:30:19.4670,0.067,1.119,-0.16,-3.56,-2.2,0.39
2022-12-08 18:30:19.4770,0.065,1.066,-0.187,-3.25,-1.57,0.62
2022-12-08 18:30:19.4870,0.077,1.026,-0.214,-3.11,-1.0,1.02
2022-12-08 18:30:19.4970,0.086,1.0,-0.219,-3.1,-0.57,1.38
2022-12-08 18:30:19.5070,0.094,0.988,-0.26,-3.05,-0.28,1.52
2022-12-08 18:30:19.5170,0.121,0.968,-0.332,-2.97,-0.12,1.98
2022-12-08 18:30:19.5270,0.148,0.949,-0.365,-3.07,0.12,2.72
2022-12-08 18:30:19.5370,0.172,0.953,-0.412,-3.15,0.34,3.07
2022-12-08 18:30:19.5470,0.153,0.949,-0.47,-3.19,0.33,3.52
2022-12-08 18:30:19.5570,0.096,0.914,-0.496,-2.8,0.39,4.06
2022-12-08 18:30:19.5670,0.021,0.87,-0.489,-2.04,0.76,4.27
2022-12-08 18:30:19.5770,-0.058,0.843,-0.428,-1.1,1.21,4.15
2022-12-08 18:30:19.5870,-0.091,0.83,-0.36,-0.15,1.49,3.49
2022-12-08 18:30:19.5970,-0.089,0.84,-0.304,0.34,1.61,2.76
2022-12-08 18:30:19.6070,-0.095,0.881,-0.269,0.48,1.52,2.13
2022-12-08 18:30:19.6170,-0.112,0.939,-0.243,0.69,1.12,1.71
2022-12-08 18:30:19.6270,-0.123,1.001,-0.204,1.01,0.54,1.36
2022-12-08 18:30:19.6370,-0.126,1.057,-0.156,1.28,-0.08,0.85
2022-12-08 18:30:19.6470,-0.133,1.097,-0.132,1.47,-0.65,0.24
2022-12-08 18:30:19.6570,-0.136,1.102,0.365,1.7,-1.07,-0.19
2022-12-08 18:30:19.6670,-0.148,1.034,1.409,1.86,-1.17,-5.27
2022-12-08 18:30:19.6770,-0.095,0.954,0.611,2.04,-0.53,-15.65
2022-12-08 18:30:19.6870,-0.113,0.878,-0.075,1.56,0.23,-7.95
2022-12-08 18:30:19.6970,-0.232,0.863,-0.07,1.79,0.94,-1.39
2022-12-08 18:30:19.7070,-0.381,0.9,0.147,3.02,1.05,-1.57
2022-12-08 18:30:19.7170,-0.433,0.947,0.099,4.56,0.66,-3.76
2022-12-08 18:30:19.7270,-0.383,1.003,-0.169,5.17,0.2,-3.27
2022-12-08 18:30:19.7370,-0.392,1.049,-0.291,4.82,-0.35,-0.56
2022-12-08 18:30:19.7470,-0.448,1.063,-0.304,5.06,-0.79,0.75
2022-12-08 18:30:19.7570,-0.495,1.052,-0.316,5.75,-0.92,1.02
2022-12-08 18:30:19.7670,-0.521,1.02,-0.361,6.33,-0.79,1.29
2022-12-08 18:30:19.7770,-0.516,0.977,-0.419,6.67,-0.47,1.87
2022-12-08 18:30:19.7870,-0.49,0.934,-0.483,6.67,-0.03,2.56
2022-12-08 18:30:19.7970,-0.481,0.94,-0.513,6.44,0.39,3.27
2022-12-08 18:30:19.8070,-0.502,1.015,-0.489,6.35,0.34,3.6
2022-12-08 18:30:19.8170,-0.539,1.096,-0.416,6.54,-0.39,3.38
2022-12-08 18:30:19.8270,-0.567,1.106,-0.323,6.87,-1.18,2.65
2022-12-08 18:30:19.8370,-0.57,1.058,-0.233,7.09,-1.27,1.72
2022-12-08 18:30:19.8470,-0.65,1.019,0.078,7.03,-0.79,0.82
2022-12-08 18:30:19.8580,-0.999,1.024,1.184,7.69,-0.39,-2.22
2022-12-08 18:30:19.8680,-1.062,1.007,1.14,10.93,-0.39,-12.93
2022-12-08 18:30:19.8770,-0.736,0.97,0.108,11.35,-0.18,-12.27
2022-12-08 18:30:19.8880,-0.647,1.056,-0.192,7.93,0.22,-1.99
2022-12-08 18:30:19.8980,-0.671,1.147,-0.185,6.82,-0.6,1.06
2022-12-08 18:30:19.9080,-0.606,1.182,-0.157,6.79,-1.48,1.07
2022-12-08 18:30:19.9180,-0.516,1.227,-0.166,5.85,-1.82,0.86
2022-12-08 18:30:19.9280,-0.443,1.318,-0.203,4.64,-2.26,1.02
2022-12-08 18:30:19.9380,-0.388,1.444,-0.24,3.58,-3.17,1.46
2022-12-08 18:30:19.9480,-0.321,1.582,-0.279,2.67,-4.43,1.9
2022-12-08 18:30:19.9580,-0.224,1.722,-0.327,1.66,-5.84,2.37
2022-12-08 18:30:19.9680,-0.089,1.827,-0.389,0.35,-7.27,2.93
2022-12-08 18:30:19.9780,0.055,1.89,-0.433,-1.31,-8.37,3.62
2022-12-08 18:30:19.9880,0.169,1.904,-0.457,-3.03,-9.06,4.12
2022-12-08 18:30:19.9980,0.227,1.844,-0.451,-4.43,-9.27,4.37
2022-12-08 18:30:20.0080,0.247,1.696,-0.408,-5.23,-8.75,4.27
2022-12-08 18:30:20.0180,0.266,1.516,-0.333,-5.63,-7.37,3.77
2022-12-08 18:30:20.0280,0.252,1.334,-0.255,-5.99,-5.67,2.91
2022-12-08 18:30:20.0380,0.237,1.174,-0.198,-6.01,-3.95,2.01
2022-12-08 18:30:20.0480,0.238,1.053,-0.166,-6.01,-2.45,1.32
2022-12-08 18:30:20.0580,0.236,0.94,-0.15,-6.16,-1.33,0.87
2022-12-08 18:30:20.0680,0.221,0.837,-0.103,-6.27,-0.3,0.56
2022-12-08 18:30:20.0780,0.238,0.815,0.017,-6.25,0.64,-0.05
2022-12-08 18:30:20.0880,0.252,0.84,0.14,-6.55,0.78,-1.38
2022-12-08 18:30:20.0980,0.214,0.839,0.312,-6.81,0.45,-2.72
2022-12-08 18:30:20.1080,0.145,0.804,0.459,-6.57,0.38,-4.46
2022-12-08 18:30:20.1180,0.127,0.75,0.367,-6.03,0.66,-5.87
2022-12-08 18:30:20.1280,0.133,0.706,0.168,-5.98,1.14,-4.9
2022-12-08 18:30:20.1380,0.125,0.671,-0.011,-6.15,1.52,-2.89
2022-12-08 18:30:20.1480,0.097,0.642,-0.117,-6.13,1.82,-1.14
2022-12-08 18:30:20.1580,0.05,0.627,-0.148,-5.9,2.06,-0.18
2022-12-08 18:30:20.1680,0.024,0.613,-0.106,-5.46,2.19,0.0
2022-12-08 18:30:20.1780,0.075,0.616,-0.012,-5.2,2.3,-0.56
2022-12-08 18:30:20.1880,0.173,0.645,0.07,-5.68,2.25,-1.64
2022-12-08 18:30:20.1980,0.244,0.674,0.111,-6.62,1.94,-2.58
2022-12-08 18:30:20.2080,0.265,0.688,0.133,-7.27,1.66,-3.12
2022-12-08 18:30:20.2180,0.242,0.691,0.133,-7.41,1.53,-3.45
2022-12-08 18:30:20.2280,0.196,0.703,0.088,-7.12,1.51,-3.54
2022-12-08 18:30:20.2390,0.134,0.717,0.02,-6.61,1.41,-3.16
2022-12-08 18:30:20.2480,0.043,0.736,-0.043,-5.93,1.29,-2.55
2022-12-08 18:30:20.2580,-0.07,0.762,-0.106,-4.95,1.14,-1.99
2022-12-08 18:30:20.2690,-0.188,0.798,-0.182,-3.75,0.91,-1.43
2022-12-08 18:30:20.2790,-0.333,0.851,-0.268,-2.48,0.61,-0.74
2022-12-08 18:30:20.2890,-0.49,0.927,-0.356,-0.96,0.13,0.07
2022-12-08 18:30:20.2990,-0.656,1.019,-0.445,0.64,-0.58,0.97
2022-12-08 18:30:20.3090,-0.813,1.128,-0.487,2.3,-1.45,1.93
2022-12-08 18:30:20.3190,-1.037,1.215,-0.503,3.84,-2.47,2.5
2022-12-08 18:30:20.3290,-1.31,1.214,-0.491,6.09,-3.25,2.84
2022-12-08 18:30:20.3390,-1.591,1.11,-0.499,8.9,-3.14,2.86
2022-12-08 18:30:20.3490,-1.816,0.947,-0.476,11.86,-2.03,2.97
2022-12-08 18:30:20.3590,-1.825,0.772,-0.426,14.28,-0.36,2.69
2022-12-08 18:30:20.3690,-1.74,0.62,-0.372,14.53,1.4,2.11
2022-12-08 18:30:20.3790,-1.598,0.617,-0.284,13.8,2.91,1.48
2022-12-08 18:30:20.3890,-1.32,0.866,-0.187,12.42,2.92,0.55
2022-12-08 18:30:20.3990,-0.991,1.091,-0.131,9.63,0.46,-0.43
2022-12-08 18:30:20.4090,-0.744,1.255,-0.022,6.29,-1.8,-0.97
2022-12-08 18:30:20.4190,-0.627,1.437,0.141,3.75,-3.44,-1.98
2022-12-08 18:30:20.4290,-0.525,1.491,0.153,2.5,-5.25,-3.5
2022-12-08 18:30:20.4390,-0.308,1.305,-0.005,1.41,-5.79,-3.51
2022-12-08 18:30:20.4490,-0.113,1.095,-0.109,-0.8,-3.97,-1.84
2022-12-08 18:30:20.4590,0.006,0.946,-0.246,-3.98,-0.47,0.62
2022-12-08 18:30:20.4710,0.124,0.848,-0.221,-3.98,-0.47,0.62
2022-12-08 18:30:20.4790,0.316,0.882,0.165,-5.13,0.46,0.22
2022-12-08 18:30:20.4890,0.49,0.978,0.472,-6.99,0.09,-3.75
2022-12-08 18:30:20.4990,0.516,1.053,0.404,-8.64,-0.85,-6.9
2022-12-08 18:30:20.5090,0.405,1.124,0.188,-8.78,-1.56,-6.3
2022-12-08 18:30:20.5190,0.265,1.205,0.039,-7.56,-2.21,-4.21
2022-12-08 18:30:20.5290,0.162,1.259,-0.027,-6.06,-2.95,-2.75
2022-12-08 18:30:20.5390,0.117,1.249,-0.023,-4.94,-3.43,-2.07
2022-12-08 18:30:20.5490,0.134,1.169,-0.018,-4.41,-3.29,-2.06
2022-12-08 18:30:20.5590,0.16,1.084,-0.005,-4.7,-1.59,-2.09
2022-12-08 18:30:20.5720,0.185,1.037,0.019,-4.7,-1.59,-2.09
2022-12-08 18:30:20.5790,0.219,1.003,0.019,-4.87,-1.08,-2.23
2022-12-08 18:30:20.5890,0.214,0.994,0.008,-5.11,-0.69,-2.13
2022-12-08 18:30:20.6010,0.159,1.01,-0.009,-4.95,-0.55,-1.91
2022-12-08 18:30:20.6090,0.108,1.028,-0.026,-4.3,-0.64,-1.61
2022-12-08 18:30:20.6190,0.081,1.042,-0.03,-3.68,-0.76,-1.31
2022-12-08 18:30:20.6290,0.069,1.058,-0.044,-3.3,-0.85,-1.13
2022-12-08 18:30:20.6390,0.07,1.064,-0.076,-3.06,-0.95,-0.83
2022-12-08 18:30:20.6500,0.088,1.057,-0.13,-2.95,-0.96,-0.35
2022-12-08 18:30:20.6590,0.098,1.033,-0.2,-2.95,-0.56,1.18
2022-12-08 18:30:20.6710,0.081,1.004,-0.263,-2.95,-0.56,1.18
2022-12-08 18:30:20.6800,0.041,0.977,-0.3,-2.63,-0.23,1.94
2022-12-08 18:30:20.6890,0.022,0.961,-0.36,-2.08,0.07,2.42
2022-12-08 18:30:20.7000,0.019,0.961,-0.458,-1.73,0.26,3.1
2022-12-08 18:30:20.7100,0.017,0.959,-0.565,-1.51,0.28,4.13
2022-12-08 18:30:20.7200,-0.037,0.945,-0.643,-1.31,0.32,5.19
2022-12-08 18:30:20.7300,-0.092,0.94,-0.647,-0.59,0.48,5.92
2022-12-08 18:30:20.7400,-0.123,0.928,-0.592,0.14,0.54,5.87
2022-12-08 18:30:20.7500,-0.132,0.913,-0.515,0.62,0.67,5.19
2022-12-08 18:30:20.7600,-0.138,0.908,-0.447,1.16,0.85,3.42
2022-12-08 18:30:20.7720,-0.165,0.921,-0.379,1.16,0.85,3.42
2022-12-08 18:30:20.7800,-0.214,0.94,-0.31,1.64,0.7,2.55
2022-12-08 18:30:20.7900,-0.246,0.966,-0.235,2.32,0.49,1.7
2022-12-08 18:30:20.8000,-0.253,1.003,-0.165,2.83,0.21,0.8
2022-12-08 18:30:20.8100,-0.242,1.041,0.16,3.09,-0.19,-0.02
2022-12-08 18:30:20.8200,-0.265,1.11,1.689,3.14,-0.58,-3.27
2022-12-08 18:30:20.8300,-0.251,1.126,0.939,3.46,-1.27,-18.23
2022-12-08 18:30:20.8400,-0.229,0.914,-0.042,3.41,-1.44,-10.95
2022-12-08 18:30:20.8500,-0.283,0.884,-0.032,3.28,0.6,-1.46
2022-12-08 18:30:20.8600,-0.346,0.936,0.001,4.64,0.33,-2.06
2022-12-08 18:30:20.8720,-0.402,0.986,-0.088,4.64,0.33,-2.06
2022-12-08 18:30:20.8800,-0.437,1.028,-0.218,5.31,-0.17,-1.14
2022-12-08 18:30:20.8900,-0.482,1.059,-0.308,6.34,-0.88,1.27
2022-12-08 18:30:20.9020,-0.53,1.076,-0.375,6.34,-0.88,1.27
2022-12-08 18:30:20.9100,-0.546,1.063,-0.447,6.9,-1.04,2.08
2022-12-08 18:30:20.9200,-0.533,1.015,-0.517,7.12,-0.89,2.91
2022-12-08 18:30:20.9300,-0.495,0.964,-0.528,7.03,-0.43,3.66
2022-12-08 18:30:20.9400,-0.438,0.962,-0.488,6.68,0.08,3.79
2022-12-08 18:30:20.9500,-0.397,1.022,-0.417,6.13,0.09,3.38
2022-12-08 18:30:20.9600,-0.36,1.083,-0.318,5.32,-1.09,1.68
2022-12-08 18:30:20.9720,-0.319,1.117,-0.168,5.32,-1.09,1.68
2022-12-08 18:30:20.9800,-0.314,1.111,-0.005,4.87,-1.41,0.22
