time,gFx,gFy,gFz,ax,ay,az
2022-12-08 18:22:00.8980,-0.025,-0.389,-0.887,-0.16,1.06,-0.5
2022-12-08 18:22:00.9020,-0.026,-0.379,-0.867,-0.23,1.04,-0.7
2022-12-08 18:22:00.9120,-0.019,-0.373,-0.853,-0.24,0.93,-0.89
2022-12-08 18:22:00.9220,-0.018,-0.363,-0.853,-0.32,0.86,-1.02
2022-12-08 18:22:00.9320,-0.015,-0.354,-0.859,-0.34,0.77,-1.03
2022-12-08 18:22:00.9420,-0.014,-0.355,-0.869,-0.37,0.69,-0.97
2022-12-08 18:22:00.9520,-0.015,-0.357,-0.886,-0.37,0.72,-0.88
2022-12-08 18:22:00.9630,-0.012,-0.358,-0.91,-0.36,0.76,-0.72
2022-12-08 18:22:00.9720,-0.012,-0.357,-0.929,-0.38,0.79,-0.49
2022-12-08 18:22:00.9830,-0.019,-0.348,-0.938,-0.32,0.73,-0.22
2022-12-08 18:22:00.9940,-0.023,-0.336,-0.942,-0.32,0.73,-0.22
2022-12-08 18:22:01.0030,-0.02,-0.328,-0.938,-0.28,0.62,-0.19
2022-12-08 18:22:01.0130,-0.013,-0.319,-0.935,-0.31,0.54,-0.23
2022-12-08 18:22:01.0230,-0.008,-0.315,-0.93,-0.38,0.45,-0.26
2022-12-08 18:22:01.0330,-0.004,-0.312,-0.919,-0.42,0.41,-0.31
2022-12-08 18:22:01.0430,-0.002,-0.318,-0.907,-0.46,0.38,-0.41
2022-12-08 18:22:01.0530,-0.008,-0.327,-0.893,-0.47,0.44,-0.54
2022-12-08 18:22:01.0630,-0.022,-0.337,-0.884,-0.4,0.55,-0.67
2022-12-08 18:22:01.0730,-0.035,-0.347,-0.885,-0.26,0.66,-0.77
2022-12-08 18:22:01.0830,-0.047,-0.352,-0.895,-0.13,0.78,-0.77
2022-12-08 18:22:01.0930,-0.059,-0.35,-0.907,-0.01,0.84,-0.67
2022-12-08 18:22:01.1030,-0.063,-0.346,-0.921,0.1,0.84,-0.56
2022-12-08 18:22:01.1130,-0.058,-0.338,-0.935,0.14,0.82,-0.42
2022-12-08 18:22:01.1230,-0.052,-0.326,-0.937,0.09,0.76,-0.29
2022-12-08 18:22:01.1330,-0.051,-0.32,-0.934,0.04,0.66,-0.28
2022-12-08 18:22:01.1430,-0.053,-0.326,-0.931,0.04,0.61,-0.32
2022-12-08 18:22:01.1530,-0.057,-0.338,-0.927,0.06,0.68,-0.35
2022-12-08 18:22:01.1630,-0.065,-0.351,-0.923,0.1,0.81,-0.38
2022-12-08 18:22:01.1730,-0.075,-0.362,-0.912,0.19,0.95,-0.43
2022-12-08 18:22:01.1830,-0.083,-0.374,-0.9,0.29,1.07,-0.54
2022-12-08 18:22:01.1930,-0.091,-0.387,-0.891,0.37,1.2,-0.66
2022-12-08 18:22:01.2030,-0.094,-0.392,-0.884,0.45,1.34,-0.76
2022-12-08 18:22:01.2130,-0.09,-0.39,-0.883,0.49,1.41,-0.83
2022-12-08 18:22:01.2230,-0.081,-0.384,-0.881,0.46,1.4,-0.84
2022-12-08 18:22:01.2330,-0.079,-0.378,-0.88,0.37,1.36,-0.86
2022-12-08 18:22:01.2430,-0.082,-0.372,-0.887,0.37,1.32,-0.88
2022-12-08 18:22:01.2530,-0.084,-0.367,-0.903,0.41,1.28,-0.81
2022-12-08 18:22:01.2630,-0.074,-0.356,-0.92,0.44,1.25,-0.67
2022-12-08 18:22:01.2730,-0.068,-0.352,-0.936,0.36,1.16,-0.51
2022-12-08 18:22:01.2830,-0.062,-0.352,-0.939,0.31,1.13,-0.35
2022-12-08 18:22:01.2930,-0.07,-0.342,-0.925,0.27,1.13,-0.32
2022-12-08 18:22:01.3030,-0.068,-0.349,-0.91,0.37,1.04,-0.46
2022-12-08 18:22:01.3130,-0.065,-0.358,-0.902,0.36,1.1,-0.6
2022-12-08 18:22:01.3240,-0.073,-0.363,-0.888,0.35,1.18,-0.68
2022-12-08 18:22:01.3340,-0.077,-0.363,-0.868,0.44,1.22,-0.81
2022-12-08 18:22:01.3440,-0.078,-0.366,-0.842,0.48,1.21,-1.01
2022-12-08 18:22:01.3540,-0.078,-0.37,-0.818,0.51,1.24,-1.27
2022-12-08 18:22:01.3630,-0.077,-0.374,-0.812,0.52,1.29,-1.51
2022-12-08 18:22:01.3740,-0.077,-0.381,-0.826,0.51,1.33,-1.57
2022-12-08 18:22:01.3840,-0.081,-0.392,-0.863,0.5,1.41,-1.43
2022-12-08 18:22:01.3940,-0.098,-0.394,-0.896,0.51,1.52,-1.07
2022-12-08 18:22:01.4040,-0.119,-0.381,-0.908,0.66,1.53,-0.74
2022-12-08 18:22:01.4140,-0.129,-0.371,-0.916,0.84,1.4,-0.62
2022-12-08 18:22:01.4240,-0.139,-0.374,-0.902,0.93,1.29,-0.54
2022-12-08 18:22:01.4340,-0.132,-0.386,-0.897,1.01,1.32,-0.67
2022-12-08 18:22:01.4440,-0.121,-0.397,-0.888,0.91,1.43,-0.72
2022-12-08 18:22:01.4540,-0.11,-0.393,-0.831,0.74,1.54,-0.81
2022-12-08 18:22:01.4640,-0.077,-0.27,-0.767,0.52,1.55,-1.37
2022-12-08 18:22:01.4740,-0.055,-0.205,-0.786,0.08,0.43,-2.01
2022-12-08 18:22:01.4840,-0.113,-0.248,-0.848,-0.24,-0.08,-1.85
2022-12-08 18:22:01.4940,-0.145,-0.262,-0.912,0.23,0.52,-1.27
2022-12-08 18:22:01.5040,-0.142,-0.28,-1.021,0.45,0.84,-0.67
2022-12-08 18:22:01.5140,-0.208,-0.275,-1.103,0.33,1.19,0.38
2022-12-08 18:22:01.5240,-0.272,-0.238,-1.132,0.9,1.3,1.17
2022-12-08 18:22:01.5340,-0.307,-0.207,-1.124,1.45,1.07,1.45
2022-12-08 18:22:01.5440,-0.331,-0.211,-1.12,1.73,0.87,1.37
2022-12-08 18:22:01.5540,-0.335,-0.24,-1.147,1.9,0.98,1.33
2022-12-08 18:22:01.5640,-0.333,-0.253,-1.171,1.9,1.28,1.59
2022-12-08 18:22:01.5740,-0.32,-0.255,-1.184,1.86,1.39,1.84
2022-12-08 18:22:01.5840,-0.285,-0.308,-1.161,1.75,1.35,1.97
2022-12-08 18:22:01.5940,-0.277,-0.374,-1.055,1.43,1.77,1.75
2022-12-08 18:22:01.6040,-0.292,-0.424,-0.939,1.34,2.32,0.72
2022-12-08 18:22:01.6140,-0.296,-0.441,-0.866,1.45,2.75,-0.4
2022-12-08 18:22:01.6240,-0.278,-0.42,-0.83,1.44,2.87,-1.1
2022-12-08 18:22:01.6340,-0.234,-0.349,-0.903,1.22,2.64,-1.45
2022-12-08 18:22:01.6440,-0.171,-0.266,-1.013,0.79,1.94,-0.73
2022-12-08 18:22:01.6540,-0.149,-0.212,-1.042,0.2,1.13,0.35
2022-12-08 18:22:01.6640,-0.061,-0.01,-1.153,0.03,0.59,0.62
2022-12-08 18:22:01.6750,-0.048,0.139,-1.246,-0.8,-1.42,1.71
2022-12-08 18:22:01.6850,-0.225,-0.01,-1.358,-0.96,-2.98,2.65
2022-12-08 18:22:01.6940,-0.275,-0.195,-1.342,0.74,-1.7,3.78
2022-12-08 18:22:01.7050,-0.278,-0.28,-1.212,1.16,-0.11,3.69
2022-12-08 18:22:01.7150,-0.299,-0.296,-1.108,1.08,0.49,2.47
2022-12-08 18:22:01.7250,-0.311,-0.305,-1.063,1.19,0.41,1.53
2022-12-08 18:22:01.7350,-0.303,-0.303,-0.986,1.23,0.25,1.18
2022-12-08 18:22:01.7450,-0.32,-0.29,-0.904,1.09,-0.01,0.51
2022-12-08 18:22:01.7550,-0.398,-0.279,-0.838,1.21,-0.38,-0.2
2022-12-08 18:22:01.7650,-0.284,-0.229,-0.817,1.95,-0.71,-0.76
2022-12-08 18:22:01.7750,-0.325,-0.187,-0.706,0.81,-1.39,-0.89
2022-12-08 18:22:01.7850,-0.275,-0.147,-0.663,1.22,-1.99,-1.9
2022-12-08 18:22:01.7950,-0.169,-0.107,-0.65,0.77,-2.54,-2.25
2022-12-08 18:22:01.8050,-0.165,-0.116,-0.545,-0.22,-3.07,-2.33
2022-12-08 18:22:01.8150,-0.138,-0.167,-0.524,-0.19,-3.1,-3.33
2022-12-08 18:22:01.8250,-0.107,-0.214,-0.529,-0.39,-2.7,-3.49
2022-12-08 18:22:01.8350,-0.099,-0.252,-0.518,-0.62,-2.31,-3.42
2022-12-08 18:22:01.8450,-0.086,-0.292,-0.488,-0.65,-2.0,-3.5
2022-12-08 18:22:01.8550,-0.021,-0.333,-0.451,-0.75,-1.65,-3.78
2022-12-08 18:22:01.8670,0.077,-0.338,-0.445,-1.38,-1.27,-4.14
2022-12-08 18:22:01.8750,0.172,-0.349,-0.47,-2.38,-1.21,-4.19
2022-12-08 18:22:01.8850,0.167,-0.369,-0.507,-3.36,-1.08,-3.95
2022-12-08 18:22:01.8950,0.186,-0.425,-0.545,-3.4,-0.86,-3.58
2022-12-08 18:22:01.9050,0.268,-0.493,-0.575,-3.7,-0.28,-3.2
2022-12-08 18:22:01.9150,0.342,-0.553,-0.57,-4.66,0.42,-2.89
2022-12-08 18:22:01.9250,0.371,-0.576,-0.541,-5.56,1.05,-2.91
2022-12-08 18:22:01.9350,0.319,-0.463,-0.511,-6.01,1.31,-3.17
2022-12-08 18:22:01.9450,0.164,-0.232,-0.485,-5.68,0.24,-3.44
2022-12-08 18:22:01.9550,0.022,-0.101,-0.454,-4.34,-1.99,-3.65
2022-12-08 18:22:01.9650,-0.017,-0.112,-0.411,-3.13,-3.24,-3.91
2022-12-08 18:22:01.9750,-0.031,-0.17,-0.391,-2.96,-3.1,-4.28
2022-12-08 18:22:01.9850,-0.092,-0.206,-0.41,-3.05,-2.5,-4.4
2022-12-08 18:22:01.9950,-0.168,-0.205,-0.414,-2.7,-2.12,-4.12
2022-12-08 18:22:02.0050,-0.259,-0.182,-0.37,-2.23,-2.11,-3.96
2022-12-08 18:22:02.0150,-0.225,-0.116,-0.305,-1.64,-2.3,-4.26
2022-12-08 18:22:02.0250,-0.02,-0.025,-0.259,-2.31,-2.89,-4.74
2022-12-08 18:22:02.0350,-0.138,0.05,-0.271,-4.68,-3.66,-5.03
2022-12-08 18:22:02.0450,-0.311,0.089,-0.318,-3.9,-4.22,-4.75
2022-12-08 18:22:02.0550,-0.47,0.105,-0.371,-2.58,-4.37,-4.13
2022-12-08 18:22:02.0650,-0.641,0.135,-0.343,-1.4,-4.24,-3.43
2022-12-08 18:22:02.0750,-0.827,0.099,-0.474,-0.11,-4.21,-3.5
2022-12-08 18:22:02.0860,-0.949,0.157,-0.575,1.35,-3.51,-2.01
2022-12-08 18:22:02.0950,-0.992,0.258,-0.708,2.23,-3.71,-0.81
2022-12-08 18:22:02.1060,-0.99,0.371,-0.703,2.39,-4.33,0.68
2022-12-08 18:22:02.1160,-0.985,0.477,-0.694,2.15,-5.06,0.8
2022-12-08 18:22:02.1260,-0.968,0.605,-0.7,1.92,-5.72,0.86
2022-12-08 18:22:02.1360,-0.946,0.737,-0.699,1.6,-6.6,1.06
2022-12-08 18:22:02.1460,-1.004,0.856,-0.567,1.26,-7.51,1.2
2022-12-08 18:22:02.1560,-1.041,0.979,-0.508,1.72,-8.28,0.05
2022-12-08 18:22:02.1660,-1.115,1.09,-0.477,2.0,-9.08,-0.36
2022-12-08 18:22:02.1760,-1.14,1.154,-0.441,2.66,-9.74,-0.5
2022-12-08 18:22:02.1860,-1.133,1.157,-0.433,2.85,-9.92,-0.66
2022-12-08 18:22:02.1960,-1.143,1.165,-0.465,2.75,-9.48,-0.53
2022-12-08 18:22:02.2060,-1.152,1.18,-0.523,2.82,-9.1,0.03
2022-12-08 18:22:02.2160,-1.152,1.197,-0.602,2.92,-8.79,0.86
2022-12-08 18:22:02.2260,-1.149,1.213,-0.672,2.94,-8.51,1.91
2022-12-08 18:22:02.2360,-1.174,1.231,-0.718,2.96,-8.23,2.88
2022-12-08 18:22:02.2460,-1.215,1.252,-0.74,3.28,-7.99,3.63
2022-12-08 18:22:02.2560,-1.272,1.28,-0.743,3.77,-7.8,4.12
2022-12-08 18:22:02.2660,-1.314,1.313,-0.734,4.45,-7.7,4.41
2022-12-08 18:22:02.2760,-1.334,1.322,-0.724,4.99,-7.68,4.57
2022-12-08 18:22:02.2860,-1.331,1.31,-0.716,5.35,-7.45,4.68
2022-12-08 18:22:02.2960,-1.316,1.266,-0.701,5.49,-7.02,4.79
2022-12-08 18:22:02.3060,-1.316,1.195,-0.662,5.54,-6.29,4.79
2022-12-08 18:22:02.3160,-1.319,1.11,-0.618,5.75,-5.31,4.54
2022-12-08 18:22:02.3260,-1.316,1.016,-0.581,5.99,-4.22,4.21
2022-12-08 18:22:02.3360,-1.312,0.922,-0.544,6.18,-3.05,3.93
2022-12-08 18:22:02.3460,-1.293,0.833,-0.516,6.36,-1.91,3.63
2022-12-08 18:22:02.3560,-1.255,0.755,-0.505,6.38,-0.84,3.41
2022-12-08 18:22:02.3660,-1.203,0.688,-0.505,6.2,0.1,3.35
2022-12-08 18:22:02.3760,-1.147,0.631,-0.506,5.87,0.9,3.37
2022-12-08 18:22:02.3860,-1.09,0.583,-0.499,5.49,1.6,3.39
2022-12-08 18:22:02.3960,-1.029,0.534,-0.49,5.08,2.18,3.32
2022-12-08 18:22:02.4060,-0.979,0.486,-0.474,4.64,2.76,3.22
2022-12-08 18:22:02.4160,-0.934,0.443,-0.448,4.29,3.31,3.02
2022-12-08 18:22:02.4260,-0.894,0.403,-0.415,3.98,3.81,2.71
2022-12-08 18:22:02.4360,-0.858,0.37,-0.374,3.7,4.26,2.33
2022-12-08 18:22:02.4460,-0.825,0.348,-0.332,3.47,4.65,1.86
2022-12-08 18:22:02.4560,-0.791,0.327,-0.29,3.25,4.9,1.36
2022-12-08 18:22:02.4660,-0.776,0.306,-0.248,3.02,5.14,0.86
2022-12-08 18:22:02.4760,-0.793,0.263,-0.204,2.97,5.38,0.37
2022-12-08 18:22:02.4860,-0.799,0.24,-0.15,3.21,5.84,-0.14
2022-12-08 18:22:02.4970,-0.782,0.246,-0.1,3.34,6.07,-0.76
2022-12-08 18:22:02.5060,-0.757,0.252,-0.066,3.23,6.02,-1.32
2022-12-08 18:22:02.5170,-0.745,0.255,-0.045,3.02,5.97,-1.71
2022-12-08 18:22:02.5270,-0.746,0.264,-0.042,2.94,5.95,-1.97
2022-12-08 18:22:02.5370,-0.71,0.299,-0.048,2.97,5.85,-2.04
2022-12-08 18:22:02.5470,-0.693,0.322,-0.055,2.65,5.52,-2.01
2022-12-08 18:22:02.5570,-0.69,0.327,-0.073,2.5,5.3,-1.97
2022-12-08 18:22:02.5670,-0.689,0.341,-0.09,2.49,5.25,-1.81
2022-12-08 18:22:02.5770,-0.693,0.356,-0.093,2.49,5.12,-1.65
2022-12-08 18:22:02.5870,-0.706,0.382,-0.098,2.54,4.97,-1.62
2022-12-08 18:22:02.5970,-0.729,0.42,-0.103,2.67,4.72,-1.58
2022-12-08 18:22:02.6070,-0.762,0.472,-0.11,2.9,4.34,-1.53
2022-12-08 18:22:02.6190,-0.797,0.526,-0.118,3.22,3.84,-1.45
2022-12-08 18:22:02.6270,-0.837,0.575,-0.125,3.55,3.31,-1.36
2022-12-08 18:22:02.6370,-0.887,0.619,-0.13,3.93,2.82,-1.27
2022-12-08 18:22:02.6470,-0.946,0.667,-0.142,4.4,2.39,-1.19
2022-12-08 18:22:02.6570,-0.995,0.704,-0.17,4.95,1.92,-1.03
2022-12-08 18:22:02.6670,-1.03,0.722,-0.203,5.41,1.56,-0.7
2022-12-08 18:22:02.6770,-1.052,0.716,-0.25,5.72,1.39,-0.3
2022-12-08 18:22:02.6870,-1.095,0.719,-0.303,5.89,1.44,0.24
2022-12-08 18:22:02.6970,-1.179,0.756,-0.344,6.26,1.41,0.84
2022-12-08 18:22:02.7070,-1.231,0.798,-0.384,7.02,1.02,1.32
2022-12-08 18:22:02.7170,-1.211,0.821,-0.434,7.44,0.58,1.81
2022-12-08 18:22:02.7290,-1.153,0.831,-0.495,7.14,0.32,2.38
2022-12-08 18:22:02.7370,-1.1,0.847,-0.551,6.45,0.18,3.05
2022-12-08 18:22:02.7470,-1.043,0.862,-0.593,5.82,-0.04,3.64
2022-12-08 18:22:02.7570,-0.994,0.866,-0.608,5.16,-0.25,4.07
2022-12-08 18:22:02.7690,-0.973,0.867,-0.597,4.58,-0.35,4.2
2022-12-08 18:22:02.7770,-0.985,0.87,-0.565,4.28,-0.43,4.04
2022-12-08 18:22:02.7870,-1.021,0.883,-0.512,4.3,-0.54,3.65
2022-12-08 18:22:02.7970,-1.059,0.903,-0.453,4.56,-0.75,3.04
2022-12-08 18:22:02.8070,-1.095,0.921,-0.4,4.81,-1.06,2.36
2022-12-08 18:22:02.8170,-1.14,0.941,-0.35,5.05,-1.35,1.74
2022-12-08 18:22:02.8270,-1.166,0.961,-0.303,5.34,-1.68,1.17
2022-12-08 18:22:02.8370,-1.164,0.967,-0.267,5.44,-2.01,0.64
2022-12-08 18:22:02.8470,-1.147,0.966,-0.253,5.25,-2.23,0.26
2022-12-08 18:22:02.8570,-1.118,0.968,-0.273,4.9,-2.39,0.11
2022-12-08 18:22:02.8670,-1.075,0.965,-0.316,4.42,-2.58,0.31
2022-12-08 18:22:02.8780,-1.018,0.951,-0.354,3.8,-2.75,0.77
2022-12-08 18:22:02.8880,-0.951,0.924,-0.379,3.03,-2.81,1.17
2022-12-08 18:22:02.8980,-0.877,0.892,-0.401,2.17,-2.75,1.46
2022-12-08 18:22:02.9080,-0.811,0.862,-0.411,1.25,-2.64,1.71
2022-12-08 18:22:02.9180,-0.753,0.833,-0.422,0.42,-2.57,1.85
2022-12-08 18:22:02.9280,-0.702,0.816,-0.438,-0.32,-2.51,1.98
2022-12-08 18:22:02.9380,-0.648,0.807,-0.44,-0.98,-2.56,2.14
2022-12-08 18:22:02.9480,-0.584,0.797,-0.427,-1.65,-2.69,2.14
2022-12-08 18:22:02.9580,-0.518,0.769,-0.414,-2.41,-2.79,1.98
2022-12-08 18:22:02.9680,-0.474,0.736,-0.391,-3.16,-2.72,1.8
2022-12-08 18:22:02.9780,-0.453,0.713,-0.356,-3.68,-2.59,1.5
2022-12-08 18:22:02.9880,-0.44,0.696,-0.317,-3.97,-2.55,1.07
2022-12-08 18:22:02.9980,-0.423,0.673,-0.276,-4.16,-2.56,0.61
2022-12-08 18:22:03.0080,-0.405,0.644,-0.235,-4.39,-2.51,0.14
2022-12-08 18:22:03.0180,-0.388,0.628,-0.192,-4.63,-2.38,-0.33
2022-12-08 18:22:03.0280,-0.371,0.613,-0.154,-4.84,-2.38,-0.81
2022-12-08 18:22:03.0380,-0.355,0.59,-0.129,-5.06,-2.39,-1.22
2022-12-08 18:22:03.0480,-0.343,0.573,-0.111,-5.26,-2.3,-1.51
2022-12-08 18:22:03.0580,-0.339,0.567,-0.094,-5.43,-2.26,-1.71
2022-12-08 18:22:03.0680,-0.33,0.562,-0.071,-5.51,-2.32,-1.88
2022-12-08 18:22:03.0780,-0.329,0.549,-0.058,-5.63,-2.39,-2.1
2022-12-08 18:22:03.0880,-0.34,0.547,-0.058,-5.69,-2.36,-2.2
2022-12-08 18:22:03.0980,-0.353,0.552,-0.062,-5.62,-2.43,-2.17
2022-12-08 18:22:03.1080,-0.356,0.564,-0.067,-5.54,-2.57,-2.09
2022-12-08 18:22:03.1180,-0.364,0.588,-0.077,-5.54,-2.76,-1.99
2022-12-08 18:22:03.1280,-0.369,0.623,-0.087,-5.5,-3.05,-1.84
2022-12-08 18:22:03.1380,-0.382,0.664,-0.097,-5.48,-3.45,-1.69
2022-12-08 18:22:03.1480,-0.411,0.723,-0.101,-5.38,-3.89,-1.54
2022-12-08 18:22:03.1580,-0.44,0.794,-0.099,-5.11,-4.5,-1.45
2022-12-08 18:22:03.1680,-0.459,0.855,-0.105,-4.84,-5.22,-1.42
2022-12-08 18:22:03.1780,-0.474,0.908,-0.122,-4.67,-5.81,-1.32
2022-12-08 18:22:03.1880,-0.47,0.944,-0.153,-4.53,-6.3,-1.11
2022-12-08 18:22:03.1980,-0.466,0.961,-0.189,-4.56,-6.6,-0.77
2022-12-08 18:22:03.2080,-0.504,0.995,-0.214,-4.58,-6.69,-0.38
2022-12-08 18:22:03.2180,-0.582,1.051,-0.223,-4.19,-6.92,-0.11
2022-12-08 18:22:03.2280,-0.63,1.085,-0.219,-3.39,-7.34,0.02
2022-12-08 18:22:03.2380,-0.628,1.08,-0.215,-2.88,-7.53,0.01
2022-12-08 18:22:03.2480,-0.614,1.053,-0.228,-2.84,-7.32,-0.02
2022-12-08 18:22:03.2580,-0.631,1.029,-0.254,-2.91,-6.86,0.14
2022-12-08 18:22:03.2690,-0.646,1.003,-0.287,-2.67,-6.43,0.42
2022-12-08 18:22:03.2780,-0.67,0.966,-0.323,-2.43,-5.95,0.75
2022-12-08 18:22:03.2880,-0.725,0.947,-0.349,-2.1,-5.36,1.12
2022-12-08 18:22:03.2980,-0.797,0.957,-0.352,-1.44,-4.93,1.39
2022-12-08 18:22:03.3080,-0.868,0.98,-0.336,-0.62,-4.81,1.43
2022-12-08 18:22:03.3190,-0.937,1.01,-0.304,0.2,-4.81,1.28
2022-12-08 18:22:03.3290,-0.996,1.044,-0.256,1.0,-4.9,0.97
2022-12-08 18:22:03.3390,-1.035,1.061,-0.202,1.71,-5.03,0.5
2022-12-08 18:22:03.3490,-1.06,1.056,-0.149,2.22,-5.0,-0.02
2022-12-08 18:22:03.3590,-1.055,1.012,-0.102,2.58,-4.77,-0.52
2022-12-08 18:22:03.3690,-1.048,0.937,-0.07,2.66,-4.15,-0.96
2022-12-08 18:22:03.3790,-1.048,0.859,-0.067,2.72,-3.24,-1.23
2022-12-08 18:22:03.3890,-1.033,0.785,-0.1,2.84,-2.3,-1.21
2022-12-08 18:22:03.3990,-1.004,0.717,-0.159,2.82,-1.42,-0.83
2022-12-08 18:22:03.4090,-0.964,0.659,-0.225,2.65,-0.61,-0.18
2022-12-08 18:22:03.4190,-0.913,0.617,-0.282,2.36,0.09,0.52
2022-12-08 18:22:03.4290,-0.845,0.588,-0.326,1.96,0.63,1.13
2022-12-08 18:22:03.4390,-0.771,0.563,-0.351,1.39,1.01,1.59
2022-12-08 18:22:03.4490,-0.707,0.538,-0.348,0.76,1.36,1.85
2022-12-08 18:22:03.4590,-0.662,0.507,-0.325,0.23,1.7,1.83
2022-12-08 18:22:03.4690,-0.639,0.469,-0.287,-0.11,2.1,1.59
2022-12-08 18:22:03.4790,-0.627,0.43,-0.246,-0.23,2.56,1.19
2022-12-08 18:22:03.4890,-0.626,0.396,-0.213,-0.25,3.03,0.76
2022-12-08 18:22:03.4990,-0.634,0.368,-0.181,-0.16,3.45,0.41
2022-12-08 18:22:03.5090,-0.642,0.344,-0.158,0.02,3.8,0.07
2022-12-08 18:22:03.5190,-0.625,0.348,-0.124,0.18,4.1,-0.18
2022-12-08 18:22:03.5290,-0.628,0.358,-0.089,0.09,4.12,-0.53
2022-12-08 18:22:03.5390,-0.632,0.36,-0.074,0.2,4.08,-0.88
2022-12-08 18:22:03.5490,-0.634,0.369,-0.077,0.3,4.11,-1.02
2022-12-08 18:22:03.5590,-0.643,0.382,-0.086,0.38,4.07,-0.99
2022-12-08 18:22:03.5690,-0.64,0.39,-0.108,0.53,3.99,-0.9
2022-12-08 18:22:03.5790,-0.643,0.397,-0.136,0.56,3.96,-0.67
2022-12-08 18:22:03.5890,-0.654,0.412,-0.133,0.65,3.94,-0.38
2022-12-08 18:22:03.5990,-0.684,0.431,-0.097,0.82,3.83,-0.41
2022-12-08 18:22:03.6090,-0.701,0.436,-0.126,1.17,3.69,-0.76
2022-12-08 18:22:03.6190,-0.703,0.433,-0.156,1.4,3.68,-0.47
2022-12-08 18:22:03.6290,-0.721,0.456,-0.167,1.48,3.75,-0.19
2022-12-08 18:22:03.6390,-0.758,0.489,-0.157,1.72,3.56,-0.1
2022-12-08 18:22:03.6490,-0.812,0.539,-0.135,2.14,3.28,-0.21
2022-12-08 18:22:03.6590,-0.865,0.588,-0.115,2.72,2.82,-0.43
2022-12-08 18:22:03.6690,-0.935,0.643,-0.112,3.3,2.36,-0.66
2022-12-08 18:22:03.6790,-0.997,0.71,-0.124,4.02,1.84,-0.69
2022-12-08 18:22:03.6890,-1.023,0.749,-0.152,4.66,1.21,-0.58
2022-12-08 18:22:03.6990,-1.013,0.786,-0.179,4.94,0.84,-0.3
2022-12-08 18:22:03.7090,-0.966,0.799,-0.204,4.86,0.5,-0.01
2022-12-08 18:22:03.7200,-0.937,0.795,-0.234,4.43,0.39,0.26
2022-12-08 18:22:03.7300,-0.997,0.818,-0.28,4.16,0.45,0.6
2022-12-08 18:22:03.7400,-1.137,0.889,-0.367,4.78,0.25,1.1
2022-12-08 18:22:03.7500,-1.244,0.959,-0.481,6.17,-0.43,2.02
2022-12-08 18:22:03.7600,-1.236,0.963,-0.507,7.22,-1.1,3.19
2022-12-08 18:22:03.7700,-1.135,0.91,-0.569,7.13,-1.13,3.49
2022-12-08 18:22:03.7800,-1.046,0.862,-0.599,6.14,-0.62,4.11
2022-12-08 18:22:03.7900,-0.982,0.82,-0.588,5.25,-0.15,4.41
2022-12-08 18:22:03.8000,-0.969,0.774,-0.548,4.62,0.26,4.28
2022-12-08 18:22:03.8100,-1.034,0.78,-0.49,4.49,0.7,3.83
2022-12-08 18:22:03.8200,-1.132,0.823,-0.444,5.12,0.63,3.22
2022-12-08 18:22:03.8300,-1.2,0.872,-0.392,6.06,0.17,2.72
2022-12-08 18:22:03.8400,-1.227,0.891,-0.341,6.68,-0.34,2.15
2022-12-08 18:22:03.8500,-1.229,0.895,-0.31,6.86,-0.59,1.63
2022-12-08 18:22:03.8600,-1.217,0.912,-0.301,6.78,-0.69,1.31
2022-12-08 18:22:03.8700,-1.191,0.927,-0.317,6.53,-0.95,1.24
2022-12-08 18:22:03.8800,-1.135,0.919,-0.345,6.12,-1.19,1.42
2022-12-08 18:22:03.8900,-1.066,0.895,-0.366,5.41,-1.22,1.73
2022-12-08 18:22:03.9000,-1.0,0.882,-0.381,4.55,-1.11,1.97
2022-12-08 18:22:03.9100,-0.942,0.879,-0.388,3.72,-1.13,2.15
2022-12-08 18:22:03.9200,-0.876,0.867,-0.394,2.96,-1.25,2.24
2022-12-08 18:22:03.9300,-0.803,0.846,-0.403,2.13,-1.29,2.32
2022-12-08 18:22:03.9400,-0.728,0.814,-0.413,1.22,-1.26,2.4
2022-12-08 18:22:03.9500,-0.661,0.775,-0.411,0.31,-1.12,2.48
2022-12-08 18:22:03.9600,-0.605,0.732,-0.395,-0.5,-0.92,2.41
2022-12-08 18:22:03.9700,-0.56,0.685,-0.368,-1.21,-0.67,2.18
2022-12-08 18:22:03.9800,-0.533,0.639,-0.326,-1.8,-0.4,1.85
2022-12-08 18:22:03.9900,-0.524,0.603,-0.277,-2.2,-0.12,1.34
2022-12-08 18:22:04.0000,-0.525,0.588,-0.221,-2.41,0.05,0.77
2022-12-08 18:22:04.0100,-0.525,0.585,-0.169,-2.52,0.0,0.14
2022-12-08 18:22:04.0200,-0.522,0.578,-0.13,-2.64,-0.16,-0.44
2022-12-08 18:22:04.0300,-0.516,0.57,-0.098,-2.79,-0.29,-0.88
2022-12-08 18:22:04.0400,-0.506,0.566,-0.065,-2.97,-0.41,-1.25
2022-12-08 18:22:04.0500,-0.492,0.567,-0.039,-3.19,-0.58,-1.61
2022-12-08 18:22:04.0600,-0.473,0.571,-0.026,-3.44,-0.8,-1.89
2022-12-08 18:22:04.0700,-0.454,0.573,-0.019,-3.74,-1.04,-2.03
2022-12-08 18:22:04.0800,-0.438,0.581,-0.023,-4.02,-1.26,-2.1
2022-12-08 18:22:04.0910,-0.423,0.599,-0.031,-4.28,-1.53,-2.06
2022-12-08 18:22:04.1010,-0.405,0.612,-0.04,-4.53,-1.89,-1.95
2022-12-08 18:22:04.1110,-0.391,0.616,-0.05,-4.79,-2.2,-1.84
2022-12-08 18:22:04.1210,-0.38,0.622,-0.062,-5.01,-2.4,-1.72
2022-12-08 18:22:04.1300,-0.375,0.63,-0.073,-5.18,-2.61,-1.57
2022-12-08 18:22:04.1410,-0.376,0.639,-0.084,-5.29,-2.83,-1.43
2022-12-08 18:22:04.1510,-0.39,0.654,-0.098,-5.34,-3.05,-1.29
2022-12-08 18:22:04.1610,-0.418,0.69,-0.105,-5.24,-3.3,-1.13
2022-12-08 18:22:04.1710,-0.455,0.745,-0.105,-5.01,-3.76,-1.03
2022-12-08 18:22:04.1810,-0.5,0.814,-0.101,-4.67,-4.37,-1.01
2022-12-08 18:22:04.1910,-0.55,0.897,-0.099,-4.26,-5.13,-1.03
2022-12-08 18:22:04.2010,-0.599,0.976,-0.098,-3.8,-6.01,-1.03
2022-12-08 18:22:04.2110,-0.632,1.028,-0.108,-3.34,-6.83,-1.0
2022-12-08 18:22:04.2210,-0.635,1.039,-0.135,-3.04,-7.37,-0.87
2022-12-08 18:22:04.2310,-0.633,1.033,-0.175,-3.02,-7.49,-0.55
2022-12-08 18:22:04.2410,-0.685,1.07,-0.212,-3.05,-7.42,-0.11
2022-12-08 18:22:04.2510,-0.751,1.136,-0.229,-2.54,-7.75,0.3
2022-12-08 18:22:04.2610,-0.757,1.146,-0.21,-1.88,-8.36,0.51
2022-12-08 18:22:04.2710,-0.695,1.083,-0.18,-1.81,-8.39,0.35
2022-12-08 18:22:04.2810,-0.624,1.004,-0.164,-2.39,-7.69,0.08
2022-12-08 18:22:04.2910,-0.58,0.949,-0.168,-3.06,-6.81,-0.07
2022-12-08 18:22:04.3010,-0.575,0.917,-0.193,-3.44,-6.13,-0.03
2022-12-08 18:22:04.3110,-0.602,0.897,-0.222,-3.43,-5.66,0.2
2022-12-08 18:22:04.3210,-0.649,0.894,-0.247,-3.1,-5.29,0.48
2022-12-08 18:22:04.3320,-0.705,0.902,-0.261,-2.56,-5.07,0.73
2022-12-08 18:22:04.3410,-0.761,0.924,-0.262,-1.92,-4.95,0.85
2022-12-08 18:22:04.3510,-0.816,0.96,-0.248,-1.29,-4.97,0.85
2022-12-08 18:22:04.3610,-0.86,0.99,-0.212,-0.65,-5.13,0.7
2022-12-08 18:22:04.3710,-0.888,0.993,-0.156,-0.11,-5.22,0.33
2022-12-08 18:22:04.3810,-0.91,0.977,-0.096,0.27,-5.05,-0.24
2022-12-08 18:22:04.3910,-0.931,0.954,-0.045,0.61,-4.7,-0.84
2022-12-08 18:22:04.4010,-0.946,0.919,-0.006,0.94,-4.26,-1.34
2022-12-08 18:22:04.4110,-0.939,0.864,0.015,1.21,-3.72,-1.73
2022-12-08 18:22:04.4210,-0.916,0.795,0.011,1.28,-2.98,-1.91
2022-12-08 18:22:04.4310,-0.88,0.725,-0.019,1.18,-2.1,-1.84
2022-12-08 18:22:04.4410,-0.833,0.659,-0.074,0.97,-1.23,-1.5
2022-12-08 18:22:04.4510,-0.795,0.6,-0.141,0.65,-0.39,-0.92
2022-12-08 18:22:04.4610,-0.763,0.548,-0.21,0.41,0.37,-0.21
2022-12-08 18:22:04.4720,-0.733,0.497,-0.266,0.23,1.05,0.51
2022-12-08 18:22:04.4810,-0.712,0.45,-0.302,0.09,1.72,1.09
2022-12-08 18:22:04.4920,-0.699,0.409,-0.313,0.03,2.34,1.47
2022-12-08 18:22:04.5010,-0.692,0.381,-0.3,0.04,2.88,1.57
2022-12-08 18:22:04.5120,-0.686,0.361,-0.265,0.11,3.29,1.44
2022-12-08 18:22:04.5220,-0.681,0.344,-0.214,0.19,3.61,1.07
2022-12-08 18:22:04.5310,-0.672,0.334,-0.161,0.26,3.88,0.54
2022-12-08 18:22:04.5420,-0.666,0.329,-0.115,0.3,4.07,-0.02
2022-12-08 18:22:04.5510,-0.671,0.331,-0.073,0.35,4.21,-0.5
2022-12-08 18:22:04.5620,-0.681,0.349,-0.038,0.51,4.27,-0.93
2022-12-08 18:22:04.5720,-0.67,0.362,-0.018,0.7,4.17,-1.28
2022-12-08 18:22:04.5820,-0.655,0.367,-0.02,0.67,4.11,-1.46
2022-12-08 18:22:04.5920,-0.654,0.384,-0.031,0.6,4.12,-1.44
2022-12-08 18:22:04.6020,-0.675,0.416,-0.045,0.67,4.03,-1.31
2022-12-08 18:22:04.6120,-0.696,0.447,-0.055,0.96,3.77,-1.15
2022-12-08 18:22:04.6220,-0.706,0.469,-0.055,1.24,3.52,-1.03
2022-12-08 18:22:04.6320,-0.717,0.485,-0.053,1.42,3.37,-1.0
2022-12-08 18:22:04.6420,-0.747,0.51,-0.055,1.61,3.27,-0.99
2022-12-08 18:22:04.6520,-0.793,0.544,-0.063,1.99,3.09,-0.94
2022-12-08 18:22:04.6620,-0.848,0.575,-0.073,2.53,2.82,-0.83
2022-12-08 18:22:04.6720,-0.909,0.599,-0.08,3.14,2.58,-0.68
2022-12-08 18:22:04.6820,-0.987,0.64,-0.09,3.82,2.39,-0.56
2022-12-08 18:22:04.6920,-1.073,0.698,-0.104,4.65,2.05,-0.4
2022-12-08 18:22:04.7020,-1.137,0.756,-0.134,5.55,1.52,-0.18
2022-12-08 18:22:04.7120,-1.152,0.784,-0.188,6.21,0.99,0.21
2022-12-08 18:22:04.7220,-1.122,0.782,-0.262,6.38,0.74,0.85
2022-12-08 18:22:04.7320,-1.069,0.755,-0.347,6.09,0.77,1.7
2022-12-08 18:22:04.7420,-1.037,0.721,-0.425,5.57,1.05,2.65
2022-12-08 18:22:04.7520,-1.095,0.746,-0.481,5.24,1.38,3.53
2022-12-08 18:22:04.7620,-1.22,0.851,-0.516,5.79,1.13,4.17
2022-12-08 18:22:04.7720,-1.259,0.932,-0.516,6.97,0.08,4.58
2022-12-08 18:22:04.7820,-1.171,0.921,-0.502,7.28,-0.75,4.62
2022-12-08 18:22:04.7920,-1.038,0.897,-0.497,6.34,-0.7,4.49
2022-12-08 18:22:04.8020,-0.919,0.885,-0.49,4.95,-0.52,4.42
2022-12-08 18:22:04.8120,-0.835,0.866,-0.465,3.71,-0.45,4.3
2022-12-08 18:22:04.8220,-0.791,0.843,-0.424,2.82,-0.31,3.99
2022-12-08 18:22:04.8320,-0.809,0.828,-0.374,2.35,-0.12,3.49
2022-12-08 18:22:04.8420,-0.879,0.833,-0.329,2.5,0.0,2.9
2022-12-08 18:22:04.8520,-0.964,0.844,-0.296,3.15,-0.08,2.36
2022-12-08 18:22:04.8620,-1.052,0.859,-0.267,3.96,-0.21,1.94
2022-12-08 18:22:04.8720,-1.13,0.878,-0.233,4.78,-0.4,1.55
2022-12-08 18:22:04.8820,-1.201,0.9,-0.192,5.49,-0.64,1.14
2022-12-08 18:22:04.8920,-1.26,0.937,-0.152,6.09,-0.93,0.67
2022-12-08 18:22:04.9030,-1.283,0.982,-0.123,6.55,-1.39,0.23
2022-12-08 18:22:04.9130,-1.254,1.02,-0.118,6.63,-1.94,-0.08
2022-12-08 18:22:04.9230,-1.183,1.026,-0.134,6.19,-2.44,-0.12
2022-12-08 18:22:04.9330,-1.111,1.014,-0.167,5.32,-2.64,0.05
2022-12-08 18:22:04.9430,-1.031,0.976,-0.221,4.44,-2.66,0.41
2022-12-08 18:22:04.9530,-0.952,0.906,-0.28,3.5,-2.43,0.97
2022-12-08 18:22:04.9630,-0.888,0.826,-0.335,2.58,-1.87,1.57
2022-12-08 18:22:04.9730,-0.847,0.75,-0.376,1.81,-1.23,2.1
2022-12-08 18:22:04.9830,-0.825,0.684,-0.398,1.28,-0.62,2.48
2022-12-08 18:22:04.9930,-0.805,0.633,-0.393,0.94,-0.12,2.64
2022-12-08 18:22:05.0030,-0.779,0.592,-0.365,0.61,0.22,2.51
2022-12-08 18:22:05.0130,-0.743,0.563,-0.314,0.23,0.45,2.12
2022-12-08 18:22:05.0230,-0.699,0.55,-0.249,-0.26,0.55,1.51
2022-12-08 18:22:05.0330,-0.653,0.546,-0.188,-0.83,0.47,0.75
2022-12-08 18:22:05.0430,-0.613,0.55,-0.138,-1.43,0.27,0.04
2022-12-08 18:22:05.0530,-0.574,0.557,-0.1,-1.96,0.0,-0.54
2022-12-08 18:22:05.0630,-0.541,0.565,-0.078,-2.49,-0.32,-0.98
2022-12-08 18:22:05.0730,-0.511,0.583,-0.062,-2.96,-0.66,-1.25
2022-12-08 18:22:05.0830,-0.476,0.598,-0.054,-3.39,-1.09,-1.46
2022-12-08 18:22:05.0930,-0.447,0.593,-0.058,-3.86,-1.49,-1.56
2022-12-08 18:22:05.1030,-0.415,0.583,-0.073,-4.28,-1.7,-1.53
2022-12-08 18:22:05.1130,-0.389,0.579,-0.085,-4.7,-1.84,-1.38
2022-12-08 18:22:05.1230,-0.392,0.584,-0.094,-5.05,-2.05,-1.26
2022-12-08 18:22:05.1330,-0.404,0.594,-0.104,-5.12,-2.32,-1.16
2022-12-08 18:22:05.1430,-0.415,0.616,-0.11,-5.09,-2.64,-1.04
2022-12-08 18:22:05.1530,-0.425,0.645,-0.111,-5.06,-3.07,-0.95
2022-12-08 18:22:05.1630,-0.434,0.677,-0.111,-5.04,-3.57,-0.91
2022-12-08 18:22:05.1730,-0.442,0.716,-0.105,-5.0,-4.08,-0.89
2022-12-08 18:22:05.1830,-0.458,0.767,-0.087,-4.98,-4.64,-0.93
2022-12-08 18:22:05.1930,-0.483,0.832,-0.064,-4.87,-5.31,-1.08
2022-12-08 18:22:05.2030,-0.506,0.893,-0.047,-4.66,-6.1,-1.29
2022-12-08 18:22:05.2130,-0.509,0.938,-0.04,-4.47,-6.83,-1.44
2022-12-08 18:22:05.2230,-0.493,0.955,-0.042,-4.46,-7.36,-1.5
2022-12-08 18:22:05.2330,-0.481,0.956,-0.061,-4.63,-7.6,-1.47
2022-12-08 18:22:05.2430,-0.483,0.95,-0.094,-4.76,-7.63,-1.28
2022-12-08 18:22:05.2530,-0.526,0.955,-0.129,-4.73,-7.55,-0.96
2022-12-08 18:22:05.2630,-0.612,0.988,-0.154,-4.3,-7.55,-0.61
2022-12-08 18:22:05.2730,-0.671,1.009,-0.167,-3.44,-7.79,-0.37
2022-12-08 18:22:05.2830,-0.639,0.964,-0.175,-2.85,-7.89,-0.23
2022-12-08 18:22:05.2930,-0.573,0.878,-0.181,-3.13,-7.32,-0.14
2022-12-08 18:22:05.3030,-0.547,0.835,-0.189,-3.75,-6.33,-0.07
2022-12-08 18:22:05.3130,-0.563,0.826,-0.197,-3.96,-5.74,0.02
2022-12-08 18:22:05.3240,-0.603,0.824,-0.202,-3.75,-5.46,0.12
2022-12-08 18:22:05.3330,-0.68,0.839,-0.202,-3.3,-5.22,0.19
2022-12-08 18:22:05.3440,-0.773,0.884,-0.192,-2.48,-5.15,0.21
2022-12-08 18:22:05.3540,-0.86,0.923,-0.176,-1.48,-5.36,0.14
2022-12-08 18:22:05.3640,-0.937,0.946,-0.161,-0.55,-5.51,0.0
2022-12-08 18:22:05.3740,-1.001,0.971,-0.139,0.29,-5.51,-0.12
2022-12-08 18:22:05.3840,-1.047,0.986,-0.1,1.57,-5.47,-0.69
2022-12-08 18:22:05.3960,-1.054,0.968,-0.061,1.57,-5.47,-0.69
2022-12-08 18:22:05.4040,-1.039,0.921,-0.03,1.74,-5.08,-1.04
2022-12-08 18:22:05.4140,-1.035,0.871,-0.013,1.7,-4.4,-1.32
2022-12-08 18:22:05.4240,-1.037,0.824,-0.011,1.76,-3.7,-1.45
2022-12-08 18:22:05.4340,-1.032,0.769,-0.026,1.9,-3.04,-1.42
2022-12-08 18:22:05.4440,-1.008,0.71,-0.059,1.96,-2.31,-1.23
2022-12-08 18:22:05.4540,-0.969,0.653,-0.11,1.84,-1.54,-0.86
2022-12-08 18:22:05.4640,-0.919,0.598,-0.169,1.56,-0.81,-0.3
2022-12-08 18:22:05.4740,-0.861,0.544,-0.216,1.18,-0.12,0.31
2022-12-08 18:22:05.4840,-0.807,0.492,-0.255,0.72,0.55,0.8
2022-12-08 18:22:05.4940,-0.76,0.449,-0.277,0.29,1.2,1.19
2022-12-08 18:22:05.5040,-0.719,0.409,-0.279,-0.07,1.75,1.41
2022-12-08 18:22:05.5140,-0.687,0.373,-0.258,-0.59,2.72,1.16
2022-12-08 18:22:05.5260,-0.662,0.347,-0.226,-0.59,2.72,1.16
2022-12-08 18:22:05.5340,-0.647,0.331,-0.19,-0.73,3.08,0.81
2022-12-08 18:22:05.5440,-0.637,0.318,-0.151,-0.78,3.33,0.4
2022-12-08 18:22:05.5540,-0.633,0.31,-0.114,-0.78,3.55,-0.04
2022-12-08 18:22:05.5640,-0.637,0.317,-0.082,-0.73,3.72,-0.45
2022-12-08 18:22:05.5740,-0.642,0.322,-0.055,-0.59,3.73,-0.81
2022-12-08 18:22:05.5840,-0.647,0.325,-0.034,-0.45,3.76,-1.11
2022-12-08 18:22:05.5940,-0.652,0.339,-0.014,-0.32,3.82,-1.36
2022-12-08 18:22:05.6040,-0.662,0.354,-0.003,-0.18,3.75,-1.57
2022-12-08 18:22:05.6140,-0.674,0.362,0.001,0.0,3.68,-1.69
2022-12-08 18:22:05.6240,-0.684,0.376,-0.005,0.2,3.67,-1.71
2022-12-08 18:22:05.6340,-0.689,0.389,-0.019,0.37,3.61,-1.64
2022-12-08 18:22:05.6440,-0.698,0.405,-0.038,0.5,3.55,-1.47
2022-12-08 18:22:05.6540,-0.719,0.427,-0.061,0.67,3.47,-1.25
2022-12-08 18:22:05.6640,-0.753,0.463,-0.079,0.95,3.33,-0.99
2022-12-08 18:22:05.6740,-0.788,0.505,-0.093,1.36,3.05,-0.77
2022-12-08 18:22:05.6840,-0.825,0.55,-0.105,1.79,2.71,-0.58
2022-12-08 18:22:05.6940,-0.87,0.605,-0.118,2.23,2.33,-0.41
2022-12-08 18:22:05.7040,-0.936,0.679,-0.138,2.74,1.87,-0.22
2022-12-08 18:22:05.7150,-1.007,0.765,-0.164,3.47,1.2,0.04
2022-12-08 18:22:05.7250,-1.063,0.829,-0.2,4.25,0.43,0.37
2022-12-08 18:22:05.7350,-1.096,0.843,-0.251,4.87,-0.13,0.81
2022-12-08 18:22:05.7450,-1.114,0.789,-0.314,5.29,-0.2,1.4
2022-12-08 18:22:05.7540,-1.124,0.696,-0.376,5.55,0.4,2.1
2022-12-08 18:22:05.7650,-1.187,0.617,-0.416,5.72,1.38,2.78
2022-12-08 18:22:05.7750,-1.351,0.653,-0.439,6.4,2.19,3.23
2022-12-08 18:22:05.7850,-1.487,0.79,-0.436,8.02,1.85,3.51
2022-12-08 18:22:05.7950,-1.465,0.858,-0.413,9.33,0.5,3.52
2022-12-08 18:22:05.8050,-1.329,0.841,-0.411,9.06,-0.21,3.31
2022-12-08 18:22:05.8150,-1.158,0.8,-0.422,7.65,-0.09,3.31
2022-12-08 18:22:05.8250,-1.016,0.742,-0.427,5.9,0.26,3.39
2022-12-08 18:22:05.8350,-0.962,0.7,-0.407,4.45,0.79,3.38
2022-12-08 18:22:05.8450,-1.01,0.697,-0.375,3.87,1.16,3.12
2022-12-08 18:22:05.8550,-1.125,0.728,-0.34,4.3,1.16,2.73
2022-12-08 18:22:05.8650,-1.263,0.789,-0.3,5.37,0.8,2.3
2022-12-08 18:22:05.8750,-1.359,0.838,-0.254,6.66,0.15,1.84
2022-12-08 18:22:05.8850,-1.401,0.866,-0.22,7.52,-0.41,1.33
2022-12-08 18:22:05.8950,-1.413,0.9,-0.206,7.8,-0.78,0.95
2022-12-08 18:22:05.9050,-1.405,0.939,-0.216,7.78,-1.23,0.79
2022-12-08 18:22:05.9150,-1.369,0.969,-0.24,7.53,-1.75,0.88
2022-12-08 18:22:05.9250,-1.31,0.983,-0.263,7.0,-2.2,1.12
2022-12-08 18:22:05.9350,-1.256,0.99,-0.279,6.23,-2.51,1.35
2022-12-08 18:22:05.9450,-1.196,0.988,-0.295,5.51,-2.76,1.52
2022-12-08 18:22:05.9550,-1.121,0.956,-0.312,4.74,-2.92,1.68
2022-12-08 18:22:05.9650,-1.032,0.904,-0.323,3.82,-2.8,1.82
2022-12-08 18:22:05.9750,-0.942,0.846,-0.325,2.78,-2.5,1.9
2022-12-08 18:22:05.9850,-0.861,0.783,-0.322,1.73,-2.12,1.86
2022-12-08 18:22:05.9950,-0.793,0.721,-0.315,0.79,-1.72,1.76
2022-12-08 18:22:06.0050,-0.743,0.668,-0.299,-0.02,-1.32,1.59
2022-12-08 18:22:06.0150,-0.702,0.625,-0.278,-0.65,-1.01,1.32
2022-12-08 18:22:06.0250,-0.669,0.598,-0.253,-1.17,-0.8,1.0
2022-12-08 18:22:06.0350,-0.628,0.583,-0.221,-1.62,-0.77,0.64
2022-12-08 18:22:06.0450,-0.585,0.565,-0.177,-2.14,-0.85,0.22
2022-12-08 18:22:06.0550,-0.546,0.55,-0.132,-2.67,-0.92,-0.32
2022-12-08 18:22:06.0650,-0.516,0.535,-0.092,-3.16,-1.02,-0.84
2022-12-08 18:22:06.0750,-0.496,0.52,-0.059,-3.56,-1.12,-1.31
2022-12-08 18:22:06.0850,-0.473,0.526,-0.017,-3.86,-1.22,-1.69
2022-12-08 18:22:06.0950,-0.456,0.529,0.017,-4.18,-1.53,-2.14
2022-12-08 18:22:06.1060,-0.444,0.527,0.042,-4.44,-1.79,-2.51
2022-12-08 18:22:06.1160,-0.436,0.529,0.054,-4.63,-2.01,-2.77
2022-12-08 18:22:06.1250,-0.428,0.538,0.049,-4.78,-2.26,-2.9
2022-12-08 18:22:06.1360,-0.41,0.55,0.037,-4.93,-2.57,-2.86
2022-12-08 18:22:06.1460,-0.392,0.562,0.02,-5.17,-2.91,-2.72
2022-12-08 18:22:06.1560,-0.385,0.575,0.005,-5.41,-3.23,-2.54
2022-12-08 18:22:06.1660,-0.376,0.595,-0.005,-5.53,-3.55,-2.37
2022-12-08 18:22:06.1760,-0.354,0.623,-0.0,-5.67,-3.93,-2.23
2022-12-08 18:22:06.1860,-0.347,0.651,0.004,-5.92,-4.36,-2.24
2022-12-08 18:22:06.1960,-0.358,0.687,-0.005,-6.03,-4.78,-2.23
2022-12-08 18:22:06.2060,-0.386,0.728,-0.02,-5.94,-5.24,-2.1
2022-12-08 18:22:06.2160,-0.416,0.761,-0.045,-5.7,-5.72,-1.9
2022-12-08 18:22:06.2260,-0.456,0.789,-0.076,-5.42,-6.09,-1.6
2022-12-08 18:22:06.2360,-0.505,0.814,-0.114,-5.04,-6.38,-1.25
2022-12-08 18:22:06.2460,-0.543,0.831,-0.156,-4.57,-6.63,-0.82
2022-12-08 18:22:06.2560,-0.579,0.836,-0.191,-4.2,-6.75,-0.35
2022-12-08 18:22:06.2660,-0.648,0.875,-0.214,-3.85,-6.75,0.04
2022-12-08 18:22:06.2760,-0.727,0.941,-0.218,-3.17,-7.05,0.31
2022-12-08 18:22:06.2860,-0.743,0.956,-0.204,-2.39,-7.6,0.39
2022-12-08 18:22:06.2960,-0.704,0.925,-0.193,-2.22,-7.64,0.3
2022-12-08 18:22:06.3060,-0.676,0.907,-0.209,-2.58,-7.2,0.23
2022-12-08 18:22:06.3160,-0.664,0.89,-0.25,-2.83,-6.86,0.41
2022-12-08 18:22:06.3260,-0.654,0.831,-0.302,-2.91,-6.5,0.84
2022-12-08 18:22:06.3360,-0.672,0.755,-0.348,-2.95,-5.7,1.37
2022-12-08 18:22:06.3460,-0.751,0.709,-0.371,-2.71,-4.7,1.85
2022-12-08 18:22:06.3560,-0.89,0.723,-0.355,-1.86,-3.99,2.08
2022-12-08 18:22:06.3660,-1.027,0.763,-0.31,-0.41,-3.88,1.94
2022-12-08 18:22:06.3760,-1.139,0.814,-0.243,1.02,-4.03,1.49
2022-12-08 18:22:06.3860,-1.212,0.864,-0.158,2.21,-4.31,0.81
2022-12-08 18:22:06.3960,-1.236,0.884,-0.063,3.02,-4.59,-0.04
2022-12-08 18:22:06.4060,-1.224,0.871,0.028,3.35,-4.6,-0.99
2022-12-08 18:22:06.4160,-1.191,0.835,0.1,3.31,-4.28,-1.9
2022-12-08 18:22:06.4260,-1.161,0.784,0.139,3.09,-3.75,-2.6
2022-12-08 18:22:06.4360,-1.135,0.734,0.127,2.88,-3.07,-2.96
2022-12-08 18:22:06.4460,-1.105,0.696,0.048,2.71,-2.42,-2.8
2022-12-08 18:22:06.4560,-1.071,0.673,-0.082,2.5,-1.89,-1.99
2022-12-08 18:22:06.4660,-1.016,0.653,-0.22,2.24,-1.51,-0.67
2022-12-08 18:22:06.4760,-0.917,0.62,-0.345,1.78,-1.18,0.7
2022-12-08 18:22:06.4860,-0.794,0.57,-0.436,0.89,-0.74,1.94
2022-12-08 18:22:06.4960,-0.676,0.528,-0.473,-0.23,-0.14,2.81
2022-12-08 18:22:06.5070,-0.578,0.505,-0.468,-1.31,0.39,3.13
2022-12-08 18:22:06.5170,-0.521,0.48,-0.43,-2.17,0.73,3.01
2022-12-08 18:22:06.5270,-0.5,0.451,-0.376,-2.62,1.1,2.56
2022-12-08 18:22:06.5370,-0.508,0.42,-0.313,-2.7,1.52,1.92
2022-12-08 18:22:06.5470,-0.533,0.391,-0.233,-2.49,1.96,1.2
2022-12-08 18:22:06.5570,-0.561,0.354,-0.145,-2.1,2.38,0.31
2022-12-08 18:22:06.5670,-0.598,0.319,-0.056,-1.69,2.87,-0.66
2022-12-08 18:22:06.5770,-0.637,0.291,0.021,-1.19,3.33,-1.63
2022-12-08 18:22:06.5870,-0.661,0.272,0.09,-0.68,3.71,-2.48
2022-12-08 18:22:06.5970,-0.668,0.262,0.156,-0.34,3.99,-3.23
2022-12-08 18:22:06.6070,-0.667,0.267,0.211,-0.16,4.16,-3.93
2022-12-08 18:22:06.6170,-0.667,0.288,0.244,-0.09,4.19,-4.5
2022-12-08 18:22:06.6270,-0.671,0.318,0.252,0.0,4.06,-4.84
2022-12-08 18:22:06.6370,-0.676,0.351,0.232,0.12,3.85,-4.91
2022-12-08 18:22:06.6470,-0.688,0.387,0.176,0.24,3.61,-4.68
2022-12-08 18:22:06.6570,-0.699,0.424,0.098,0.44,3.34,-4.07
2022-12-08 18:22:06.6670,-0.713,0.453,0.019,0.63,3.07,-3.25
2022-12-08 18:22:06.6770,-0.748,0.479,-0.056,0.86,2.88,-2.41
2022-12-08 18:22:06.6870,-0.807,0.516,-0.11,1.3,2.73,-1.61
2022-12-08 18:22:06.6970,-0.88,0.571,-0.134,1.96,2.45,-1.02
2022-12-08 18:22:06.7070,-0.953,0.634,-0.136,2.77,2.0,-0.72
2022-12-08 18:22:06.7170,-1.018,0.699,-0.133,3.57,1.46,-0.65
2022-12-08 18:22:06.7270,-1.074,0.759,-0.124,4.29,0.89,-0.62
2022-12-08 18:22:06.7370,-1.122,0.806,-0.115,4.91,0.37,-0.65
2022-12-08 18:22:06.7470,-1.136,0.825,-0.123,5.45,-0.02,-0.67
2022-12-08 18:22:06.7570,-1.136,0.825,-0.153,5.64,-0.16,-0.52
2022-12-08 18:22:06.7670,-1.142,0.822,-0.204,5.69,-0.1,-0.13
2022-12-08 18:22:06.7770,-1.188,0.848,-0.258,5.79,-0.03,0.46
2022-12-08 18:22:06.7870,-1.274,0.919,-0.306,6.28,-0.24,1.09
2022-12-08 18:22:06.7970,-1.325,0.99,-0.348,7.13,-0.91,1.67
2022-12-08 18:22:06.8070,-1.312,1.017,-0.391,7.63,-1.59,2.18
2022-12-08 18:22:06.8170,-1.239,1.003,-0.439,7.5,-1.85,2.68
2022-12-08 18:22:06.8270,-1.144,0.955,-0.467,6.77,-1.71,3.23
2022-12-08 18:22:06.8370,-1.068,0.898,-0.489,5.82,-1.25,3.53
2022-12-08 18:22:06.8470,-1.034,0.839,-0.498,5.07,-0.7,3.77
2022-12-08 18:22:06.8570,-1.066,0.793,-0.48,4.73,-0.12,3.85
2022-12-08 18:22:06.8670,-1.137,0.787,-0.437,5.03,0.32,3.64
2022-12-08 18:22:06.8770,-1.222,0.8,-0.375,5.71,0.37,3.18
2022-12-08 18:22:06.8870,-1.283,0.808,-0.321,6.51,0.21,2.52
2022-12-08 18:22:06.8970,-1.307,0.807,-0.27,7.05,0.08,1.93
2022-12-08 18:22:06.9070,-1.297,0.81,-0.218,7.2,0.02,1.37
2022-12-08 18:22:06.9170,-1.262,0.826,-0.174,6.98,-0.1,0.82
2022-12-08 18:22:06.9280,-1.213,0.844,-0.148,6.51,-0.36,0.35
2022-12-08 18:22:06.9380,-1.153,0.864,-0.149,5.86,-0.67,0.08
2022-12-08 18:22:06.9470,-1.092,0.888,-0.167,5.11,-1.0,0.09
2022-12-08 18:22:06.9580,-1.034,0.902,-0.187,4.34,-1.38,0.27
2022-12-08 18:22:06.9670,-0.963,0.894,-0.209,3.58,-1.68,0.48
2022-12-08 18:22:06.9780,-0.865,0.843,-0.227,2.71,-1.77,0.7
2022-12-08 18:22:06.9880,-0.756,0.769,-0.242,1.57,-1.44,0.9
2022-12-08 18:22:06.9980,-0.651,0.69,-0.262,0.33,-0.88,1.05
2022-12-08 18:22:07.0080,-0.556,0.601,-0.289,-0.85,-0.29,1.23
2022-12-08 18:22:07.0180,-0.485,0.511,-0.312,-1.93,0.42,1.47
2022-12-08 18:22:07.0280,-0.45,0.446,-0.319,-2.76,1.13,1.65
2022-12-08 18:22:07.0380,-0.445,0.411,-0.303,-3.22,1.6,1.64
2022-12-08 18:22:07.0480,-0.451,0.397,-0.27,-3.37,1.78,1.39
2022-12-08 18:22:07.0580,-0.45,0.391,-0.228,-3.41,1.76,0.94
2022-12-08 18:22:07.0680,-0.439,0.382,-0.185,-3.5,1.67,0.41
2022-12-08 18:22:07.0780,-0.418,0.367,-0.147,-3.69,1.6,-0.12
2022-12-08 18:22:07.0880,-0.408,0.36,-0.113,-3.97,1.58,-0.61
2022-12-08 18:22:07.0980,-0.411,0.361,-0.081,-4.14,1.5,-1.04
2022-12-08 18:22:07.1080,-0.428,0.37,-0.056,-4.12,1.08,-1.7
2022-12-08 18:22:07.1200,-0.447,0.391,-0.032,-4.12,1.08,-1.7
2022-12-08 18:22:07.1280,-0.476,0.426,-0.016,-4.01,0.7,-1.94
2022-12-08 18:22:07.1380,-0.516,0.485,-0.015,-3.54,-0.57,-2.03
2022-12-08 18:22:07.1500,-0.562,0.567,-0.02,-3.54,-0.57,-2.03
2022-12-08 18:22:07.1580,-0.611,0.659,-0.031,-3.19,-1.55,-1.91
2022-12-08 18:22:07.1680,-0.639,0.744,-0.051,-2.81,-2.62,-1.72
2022-12-08 18:22:07.1780,-0.644,0.798,-0.077,-2.61,-3.61,-1.45
2022-12-08 18:22:07.1880,-0.645,0.834,-0.108,-2.64,-4.28,-1.12
2022-12-08 18:22:07.1980,-0.658,0.879,-0.138,-2.7,-4.77,-0.76
2022-12-08 18:22:07.2080,-0.686,0.929,-0.159,-2.62,-5.32,-0.41
2022-12-08 18:22:07.2180,-0.73,0.989,-0.169,-2.39,-5.91,-0.16
2022-12-08 18:22:07.2280,-0.777,1.054,-0.174,-1.99,-6.58,-0.02
2022-12-08 18:22:07.2380,-0.813,1.112,-0.171,-1.56,-7.28,0.05
2022-12-08 18:22:07.2480,-0.833,1.161,-0.174,-1.23,-7.91,0.05
2022-12-08 18:22:07.2580,-0.843,1.189,-0.18,-1.04,-8.42,0.1
2022-12-08 18:22:07.2680,-0.834,1.193,-0.184,-0.96,-8.7,0.17
2022-12-08 18:22:07.2780,-0.819,1.182,-0.18,-1.04,-8.74,0.22
2022-12-08 18:22:07.2880,-0.83,1.194,-0.171,-1.18,-8.6,0.19
2022-12-08 18:22:07.2980,-0.848,1.22,-0.165,-1.06,-8.67,0.12
2022-12-08 18:22:07.3080,-0.81,1.189,-0.173,-0.86,-8.85,0.08
2022-12-08 18:22:07.3190,-0.718,1.09,-0.203,-1.2,-8.46,0.16
2022-12-08 18:22:07.3280,-0.632,0.985,-0.251,-2.06,-7.37,0.47
2022-12-08 18:22:07.3390,-0.597,0.913,-0.308,-2.86,-6.19,0.97
2022-12-08 18:22:07.3490,-0.597,0.856,-0.365,-3.14,-5.32,1.55
2022-12-08 18:22:07.3590,-0.626,0.808,-0.407,-3.07,-4.59,2.13
2022-12-08 18:22:07.3690,-0.673,0.796,-0.41,-2.71,-3.94,2.55
2022-12-08 18:22:07.3790,-0.728,0.83,-0.369,-2.17,-3.65,2.57
2022-12-08 18:22:07.3890,-0.762,0.869,-0.292,-1.55,-3.81,2.16
2022-12-08 18:22:07.3990,-0.772,0.886,-0.198,-1.13,-4.04,1.38
2022-12-08 18:22:07.4090,-0.77,0.876,-0.111,-0.94,-4.05,0.43
2022-12-08 18:22:07.4190,-0.779,0.852,-0.047,-0.86,-3.77,-0.44
2022-12-08 18:22:07.4290,-0.803,0.814,-0.005,-0.66,-3.37,-1.08
2022-12-08 18:22:07.4390,-0.834,0.761,0.021,-0.32,-2.81,-1.5
2022-12-08 18:22:07.4490,-0.871,0.706,0.034,0.11,-2.11,-1.75
2022-12-08 18:22:07.4590,-0.913,0.659,0.028,0.6,-1.38,-1.85
2022-12-08 18:22:07.4690,-0.944,0.62,0.011,1.12,-0.75,-1.77
2022-12-08 18:22:07.4790,-0.947,0.597,-0.016,1.53,-0.21,-1.56
2022-12-08 18:22:07.4890,-0.916,0.574,-0.056,1.67,0.16,-1.26
2022-12-08 18:22:07.4990,-0.862,0.543,-0.104,1.46,0.5,-0.84
2022-12-08 18:22:07.5090,-0.802,0.512,-0.149,1.01,0.93,-0.34
2022-12-08 18:22:07.5190,-0.745,0.479,-0.176,0.52,1.34,0.11
2022-12-08 18:22:07.5290,-0.688,0.432,-0.192,0.06,1.77,0.37
2022-12-08 18:22:07.5390,-0.656,0.385,-0.182,-0.4,2.34,0.5
2022-12-08 18:22:07.5490,-0.639,0.348,-0.16,-0.61,2.91,0.37
2022-12-08 18:22:07.5590,-0.638,0.321,-0.131,-0.66,3.37,0.12
2022-12-08 18:22:07.5690,-0.643,0.301,-0.107,-0.56,3.74,-0.22
2022-12-08 18:22:07.5790,-0.644,0.28,-0.088,-0.4,4.04,-0.49
2022-12-08 18:22:07.5890,-0.649,0.265,-0.077,-0.29,4.33,-0.72
2022-12-08 18:22:07.5990,-0.656,0.258,-0.071,-0.15,4.55,-0.88
2022-12-08 18:22:07.6090,-0.663,0.257,-0.066,0.02,4.7,-0.97
2022-12-08 18:22:07.6190,-0.668,0.257,-0.052,0.17,4.77,-1.05
2022-12-08 18:22:07.6290,-0.677,0.261,-0.036,0.29,4.83,-1.22
2022-12-08 18:22:07.6390,-0.688,0.272,-0.019,0.45,4.84,-1.4
2022-12-08 18:22:07.6490,-0.703,0.294,-0.004,0.61,4.78,-1.59
2022-12-08 18:22:07.6590,-0.712,0.326,0.002,0.81,4.6,-1.74
2022-12-08 18:22:07.6690,-0.702,0.359,-0.006,0.93,4.31,-1.79
2022-12-08 18:22:07.6790,-0.686,0.384,-0.037,0.85,4.01,-1.69
2022-12-08 18:22:07.6890,-0.675,0.405,-0.083,0.71,3.79,-1.36
2022-12-08 18:22:07.6990,-0.672,0.426,-0.122,0.62,3.6,-0.88
2022-12-08 18:22:07.7090,-0.69,0.452,-0.149,0.61,3.42,-0.45
2022-12-08 18:22:07.7200,-0.728,0.496,-0.171,0.8,3.18,-0.16
2022-12-08 18:22:07.7290,-0.802,0.566,-0.163,1.18,2.76,0.09
2022-12-08 18:22:07.7400,-0.871,0.649,-0.144,1.9,2.09,0.05
2022-12-08 18:22:07.7500,-0.914,0.716,-0.129,2.58,1.27,-0.09
2022-12-08 18:22:07.7600,-0.932,0.775,-0.125,2.99,0.62,-0.19
2022-12-08 18:22:07.7700,-0.935,0.824,-0.138,3.15,0.04,-0.18
2022-12-08 18:22:07.7800,-0.935,0.865,-0.161,3.17,-0.43,0.01
2022-12-08 18:22:07.7900,-0.946,0.9,-0.195,3.17,-0.83,0.3
2022-12-08 18:22:07.8000,-0.979,0.934,-0.236,3.61,-1.48,1.2
2022-12-08 18:22:07.8110,-1.017,0.965,-0.279,3.61,-1.48,1.2
2022-12-08 18:22:07.8200,-1.047,0.993,-0.321,3.99,-1.77,1.71
2022-12-08 18:22:07.8300,-1.051,1.005,-0.36,4.29,-2.02,2.19
2022-12-08 18:22:07.8400,-1.037,0.996,-0.406,4.35,-2.12,2.65
2022-12-08 18:22:07.8500,-1.012,0.971,-0.458,4.24,-2.01,3.17
2022-12-08 18:22:07.8600,-0.991,0.932,-0.504,4.02,-1.73,3.72
2022-12-08 18:22:07.8700,-0.987,0.883,-0.539,3.86,-1.31,4.18
2022-12-08 18:22:07.8800,-1.004,0.829,-0.552,3.88,-0.8,4.51
2022-12-08 18:22:07.8900,-1.042,0.771,-0.526,4.11,-0.22,4.58
2022-12-08 18:22:07.9000,-1.087,0.72,-0.47,4.55,0.39,4.24
2022-12-08 18:22:07.9100,-1.127,0.68,-0.399,5.04,0.91,3.57
2022-12-08 18:22:07.9200,-1.162,0.645,-0.317,5.48,1.31,2.73
2022-12-08 18:22:07.9300,-1.194,0.616,-0.235,5.83,1.63,1.76
2022-12-08 18:22:07.9400,-1.208,0.592,-0.149,6.13,1.89,0.79
2022-12-08 18:22:07.9500,-1.211,0.575,-0.064,6.24,2.06,-0.22
2022-12-08 18:22:07.9600,-1.206,0.572,0.011,6.19,2.14,-1.19
2022-12-08 18:22:07.9700,-1.194,0.587,0.066,6.04,2.07,-2.04
2022-12-08 18:22:07.9800,-1.18,0.616,0.094,5.78,1.8,-2.66
2022-12-08 18:22:07.9900,-1.173,0.668,0.1,5.48,1.36,-2.98
2022-12-08 18:22:08.0000,-1.14,0.726,0.059,5.22,0.69,-3.04
2022-12-08 18:22:08.0100,-1.101,0.77,-0.015,4.7,-0.05,-2.62
2022-12-08 18:22:08.0200,-1.053,0.808,-0.095,4.09,-0.67,-1.84
2022-12-08 18:22:08.0300,-0.985,0.826,-0.169,3.41,-1.25,-0.99
2022-12-08 18:22:08.0400,-0.903,0.815,-0.23,2.53,-1.63,-0.21
2022-12-08 18:22:08.0500,-0.818,0.793,-0.276,1.52,-1.74,0.43
2022-12-08 18:22:08.0600,-0.752,0.767,-0.318,0.5,-1.74,0.91
2022-12-08 18:22:08.0700,-0.708,0.74,-0.356,-0.31,-1.71,1.32
2022-12-08 18:22:08.0800,-0.675,0.714,-0.387,-0.9,-1.66,1.66
2022-12-08 18:22:08.0900,-0.647,0.687,-0.402,-1.36,-1.62,1.89
2022-12-08 18:22:08.1000,-0.623,0.663,-0.394,-1.75,-1.57,1.94
2022-12-08 18:22:08.1100,-0.599,0.645,-0.363,-2.09,-1.56,1.75
2022-12-08 18:22:08.1200,-0.578,0.631,-0.316,-2.42,-1.6,1.31
2022-12-08 18:22:08.1300,-0.552,0.623,-0.263,-2.72,-1.69,0.72
2022-12-08 18:22:08.1400,-0.521,0.619,-0.212,-3.05,-1.83,0.07
2022-12-08 18:22:08.1500,-0.491,0.608,-0.16,-3.43,-2.03,-0.56
2022-12-08 18:22:08.1610,-0.47,0.598,-0.112,-3.8,-2.15,-1.17
2022-12-08 18:22:08.1710,-0.455,0.592,-0.068,-4.07,-2.27,-1.72
2022-12-08 18:22:08.1810,-0.445,0.583,-0.029,-4.29,-2.43,-2.21
2022-12-08 18:22:08.1910,-0.433,0.576,0.003,-4.46,-2.56,-2.62
2022-12-08 18:22:08.2010,-0.426,0.57,0.022,-4.64,-2.69,-2.95
2022-12-08 18:22:08.2110,-0.415,0.567,0.029,-4.77,-2.82,-3.14
2022-12-08 18:22:08.2210,-0.402,0.564,0.023,-4.93,-2.96,-3.2
2022-12-08 18:22:08.2310,-0.401,0.563,0.001,-5.12,-3.09,-3.11
2022-12-08 18:22:08.2410,-0.389,0.576,-0.032,-5.17,-3.21,-2.87
2022-12-08 18:22:08.2510,-0.39,0.593,-0.052,-5.32,-3.46,-2.51
2022-12-08 18:22:08.2610,-0.397,0.614,-0.07,-5.35,-3.73,-2.28
2022-12-08 18:22:08.2710,-0.415,0.654,-0.086,-5.31,-4.02,-2.07
2022-12-08 18:22:08.2810,-0.446,0.72,-0.094,-5.15,-4.46,-1.89
2022-12-08 18:22:08.2910,-0.477,0.788,-0.092,-4.86,-5.15,-1.79
2022-12-08 18:22:08.3010,-0.5,0.85,-0.088,-4.56,-5.84,-1.79
2022-12-08 18:22:08.3110,-0.503,0.892,-0.088,-4.35,-6.44,-1.8
2022-12-08 18:22:08.3210,-0.505,0.904,-0.093,-4.31,-6.81,-1.77
2022-12-08 18:22:08.3310,-0.539,0.911,-0.1,-4.3,-6.85,-1.68
2022-12-08 18:22:08.3410,-0.644,0.955,-0.099,-3.94,-6.8,-1.57
2022-12-08 18:22:08.3510,-0.779,1.021,-0.096,-2.89,-7.08,-1.51
2022-12-08 18:22:08.3610,-0.877,1.056,-0.093,-1.55,-7.55,-1.47
2022-12-08 18:22:08.3710,-0.902,1.026,-0.105,-0.55,-7.71,-1.4
2022-12-08 18:22:08.3810,-0.884,0.955,-0.132,-0.27,-7.21,-1.2
2022-12-08 18:22:08.3910,-0.854,0.891,-0.177,-0.4,-6.3,-0.83
2022-12-08 18:22:08.4010,-0.839,0.848,-0.228,-0.64,-5.44,-0.29
2022-12-08 18:22:08.4110,-0.84,0.823,-0.288,-0.72,-4.79,0.32
2022-12-08 18:22:08.4210,-0.853,0.809,-0.349,-0.64,-4.32,1.01
2022-12-08 18:22:08.4310,-0.881,0.814,-0.399,-0.44,-3.97,1.71
2022-12-08 18:22:08.4410,-0.924,0.842,-0.435,-0.09,-3.82,2.29
2022-12-08 18:22:08.4510,-0.966,0.872,-0.441,0.41,-3.91,2.71
2022-12-08 18:22:08.4610,-0.985,0.88,-0.407,0.9,-4.02,2.83
2022-12-08 18:22:08.4710,-0.983,0.864,-0.337,1.17,-3.94,2.53
2022-12-08 18:22:08.4810,-0.979,0.835,-0.258,1.23,-3.63,1.86
2022-12-08 18:22:08.4910,-0.986,0.797,-0.191,1.28,-3.19,1.11
2022-12-08 18:22:08.5010,-0.992,0.753,-0.136,1.44,-2.68,0.46
2022-12-08 18:22:08.5110,-0.997,0.7,-0.092,1.58,-2.11,-0.07
2022-12-08 18:22:08.5210,-1.001,0.649,-0.057,1.72,-1.46,-0.49
2022-12-08 18:22:08.5310,-0.996,0.6,-0.041,1.83,-0.83,-0.82
2022-12-08 18:22:08.5410,-0.971,0.558,-0.048,1.85,-0.25,-0.96
2022-12-08 18:22:08.5520,-0.925,0.527,-0.087,1.67,0.25,-0.86
2022-12-08 18:22:08.5620,-0.863,0.501,-0.143,1.28,0.64,-0.47
2022-12-08 18:22:08.5710,-0.789,0.479,-0.192,0.72,0.96,0.08
2022-12-08 18:22:08.5820,-0.72,0.464,-0.218,0.04,1.24,0.54
2022-12-08 18:22:08.5920,-0.657,0.441,-0.215,-0.57,1.45,0.74
2022-12-08 18:22:08.6020,-0.605,0.418,-0.19,-1.12,1.75,0.64
2022-12-08 18:22:08.6120,-0.571,0.404,-0.153,-1.55,2.05,0.31
2022-12-08 18:22:08.6220,-0.551,0.385,-0.117,-1.79,2.28,-0.14
2022-12-08 18:22:08.6320,-0.545,0.365,-0.083,-1.9,2.54,-0.58
2022-12-08 18:22:08.6420,-0.555,0.345,-0.054,-1.85,2.84,-1.0
2022-12-08 18:22:08.6520,-0.575,0.325,-0.032,-1.64,3.13,-1.36
2022-12-08 18:22:08.6620,-0.605,0.31,-0.017,-1.34,3.42,-1.64
2022-12-08 18:22:08.6720,-0.633,0.302,-0.007,-0.95,3.66,-1.83
2022-12-08 18:22:08.6820,-0.657,0.298,0.002,-0.58,3.82,-1.96
2022-12-08 18:22:08.6920,-0.68,0.3,0.011,-0.26,3.94,-2.07
2022-12-08 18:22:08.7020,-0.698,0.308,0.02,0.04,3.99,-2.16
2022-12-08 18:22:08.7120,-0.711,0.321,0.028,0.27,3.96,-2.25
2022-12-08 18:22:08.7220,-0.72,0.34,0.033,0.45,3.89,-2.32
2022-12-08 18:22:08.7320,-0.716,0.363,0.028,0.59,3.74,-2.34
2022-12-08 18:22:08.7420,-0.706,0.382,0.009,0.59,3.57,-2.27
2022-12-08 18:22:08.7520,-0.704,0.401,-0.023,0.52,3.42,-2.05
2022-12-08 18:22:08.7620,-0.722,0.428,-0.049,0.55,3.28,-1.71
2022-12-08 18:22:08.7720,-0.762,0.472,-0.062,0.76,3.06,-1.42
2022-12-08 18:22:08.7820,-0.809,0.525,-0.064,1.19,2.66,-1.26
2022-12-08 18:22:08.7920,-0.859,0.575,-0.059,1.68,2.18,-1.2
2022-12-08 18:22:08.8020,-0.915,0.643,-0.057,2.2,1.72,-1.2
2022-12-08 18:22:08.8120,-0.966,0.721,-0.06,2.77,1.1,-1.16
2022-12-08 18:22:08.8220,-0.997,0.792,-0.077,3.28,0.35,-1.06
2022-12-08 18:22:08.8320,-1.0,0.842,-0.113,3.59,-0.32,-0.81
2022-12-08 18:22:08.8420,-0.976,0.87,-0.175,3.63,-0.79,-0.36
2022-12-08 18:22:08.8520,-0.946,0.862,-0.262,3.4,-1.04,0.35
2022-12-08 18:22:08.8620,-0.921,0.817,-0.355,3.12,-0.93,1.31
2022-12-08 18:22:08.8720,-0.935,0.776,-0.426,2.9,-0.45,2.3
2022-12-08 18:22:08.8820,-1.028,0.787,-0.463,3.08,0.0,3.07
2022-12-08 18:22:08.8920,-1.121,0.816,-0.465,4.04,-0.07,3.48
2022-12-08 18:22:08.9020,-1.116,0.779,-0.453,4.99,-0.31,3.54
2022-12-08 18:22:08.9120,-1.063,0.727,-0.449,4.98,0.08,3.43
2022-12-08 18:22:08.9220,-1.006,0.697,-0.439,4.5,0.61,3.36
2022-12-08 18:22:08.9320,-0.957,0.662,-0.411,3.97,0.92,3.23
2022-12-08 18:22:08.9420,-0.952,0.631,-0.369,3.53,1.3,2.89
2022-12-08 18:22:08.9530,-1.001,0.625,-0.313,3.53,1.62,2.4
2022-12-08 18:22:08.9630,-1.084,0.65,-0.251,4.05,1.69,1.77
2022-12-08 18:22:08.9720,-1.188,0.691,-0.194,4.89,1.46,1.09
2022-12-08 18:22:08.9830,-1.287,0.738,-0.156,5.92,1.04,0.47
2022-12-08 18:22:08.9930,-1.354,0.77,-0.129,6.87,0.56,0.05
2022-12-08 18:22:09.0030,-1.388,0.8,-0.12,7.47,0.21,-0.23
2022-12-08 18:22:09.0130,-1.403,0.838,-0.13,7.72,-0.15,-0.32
2022-12-08 18:22:09.0230,-1.377,0.859,-0.168,7.75,-0.6,-0.18
2022-12-08 18:22:09.0330,-1.331,0.868,-0.204,7.37,-0.91,0.24
2022-12-08 18:22:09.0430,-1.281,0.873,-0.233,6.76,-1.11,0.65
2022-12-08 18:22:09.0530,-1.222,0.867,-0.264,6.12,-1.28,1.0
2022-12-08 18:22:09.0630,-1.156,0.847,-0.294,5.38,-1.36,1.36
2022-12-08 18:22:09.0730,-1.078,0.809,-0.328,4.57,-1.31,1.71
2022-12-08 18:22:09.0830,-0.995,0.761,-0.364,3.65,-1.08,2.08
2022-12-08 18:22:09.0930,-0.917,0.707,-0.395,2.68,-0.76,2.44
2022-12-08 18:22:09.1030,-0.846,0.653,-0.411,1.77,-0.4,2.72
2022-12-08 18:22:09.1130,-0.788,0.609,-0.401,0.93,-0.05,2.82
2022-12-08 18:22:09.1230,-0.736,0.579,-0.364,0.22,0.21,2.62
2022-12-08 18:22:09.1330,-0.691,0.552,-0.309,-0.41,0.32,2.14
2022-12-08 18:22:09.1430,-0.645,0.525,-0.253,-0.98,0.39,1.46
2022-12-08 18:22:09.1530,-0.606,0.504,-0.203,-1.54,0.46,0.76
2022-12-08 18:22:09.1630,-0.569,0.485,-0.158,-2.03,0.45,0.12
2022-12-08 18:22:09.1730,-0.543,0.473,-0.117,-2.5,0.43,-0.46
2022-12-08 18:22:09.1830,-0.526,0.469,-0.078,-2.86,0.33,-0.99
2022-12-08 18:22:09.1930,-0.516,0.472,-0.041,-3.13,0.15,-1.49
2022-12-08 18:22:09.2030,-0.504,0.476,-0.01,-3.33,-0.11,-1.93
2022-12-08 18:22:09.2130,-0.494,0.477,0.015,-3.56,-0.38,-2.29
2022-12-08 18:22:09.2230,-0.49,0.485,0.028,-3.76,-0.62,-2.55
2022-12-08 18:22:09.2330,-0.487,0.5,0.029,-3.91,-0.93,-2.68
2022-12-08 18:22:09.2430,-0.486,0.522,0.019,-4.04,-1.31,-2.67
2022-12-08 18:22:09.2530,-0.476,0.547,0.002,-4.15,-1.75,-2.52
2022-12-08 18:22:09.2630,-0.462,0.567,-0.013,-4.34,-2.21,-2.29
2022-12-08 18:22:09.2730,-0.462,0.58,-0.03,-4.56,-2.61,-2.08
2022-12-08 18:22:09.2830,-0.449,0.607,-0.052,-4.64,-2.93,-1.83
2022-12-08 18:22:09.2930,-0.456,0.637,-0.06,-4.84,-3.35,-1.55
2022-12-08 18:22:09.3030,-0.494,0.678,-0.073,-4.83,-3.8,-1.39
2022-12-08 18:22:09.3130,-0.55,0.736,-0.085,-4.5,-4.33,-1.19
2022-12-08 18:22:09.3230,-0.607,0.806,-0.099,-3.98,-5.0,-1.0
2022-12-08 18:22:09.3340,-0.643,0.864,-0.117,-3.46,-5.77,-0.81
2022-12-08 18:22:09.3430,-0.658,0.895,-0.141,-3.13,-6.41,-0.57
2022-12-08 18:22:09.3540,-0.654,0.9,-0.172,-3.01,-6.75,-0.29
2022-12-08 18:22:09.3640,-0.635,0.88,-0.206,-3.05,-6.81,0.06
2022-12-08 18:22:09.3740,-0.629,0.85,-0.235,-3.24,-6.6,0.44
2022-12-08 18:22:09.3840,-0.678,0.861,-0.249,-3.29,-6.26,0.76
2022-12-08 18:22:09.3940,-0.762,0.911,-0.242,-2.81,-6.31,0.93
2022-12-08 18:22:09.4040,-0.789,0.93,-0.222,-1.98,-6.73,0.89
2022-12-08 18:22:09.4140,-0.739,0.884,-0.207,-1.69,-6.82,0.73
2022-12-08 18:22:09.4240,-0.687,0.837,-0.204,-2.16,-6.28,0.61
2022-12-08 18:22:09.4340,-0.671,0.823,-0.209,-2.64,-5.69,0.6
2022-12-08 18:22:09.4440,-0.664,0.801,-0.217,-2.76,-5.41,0.66
2022-12-08 18:22:09.4540,-0.671,0.766,-0.228,-2.79,-5.04,0.75
2022-12-08 18:22:09.4640,-0.717,0.75,-0.238,-2.66,-4.51,0.88
2022-12-08 18:22:09.4740,-0.794,0.768,-0.241,-2.14,-4.16,0.99
2022-12-08 18:22:09.4840,-0.892,0.807,-0.237,-1.31,-4.13,1.03
2022-12-08 18:22:09.4940,-0.983,0.849,-0.23,-0.28,-4.3,1.02
2022-12-08 18:22:09.5040,-1.052,0.884,-0.214,0.69,-4.52,0.96
2022-12-08 18:22:09.5140,-1.092,0.898,-0.192,1.45,-4.67,0.81
2022-12-08 18:22:09.5240,-1.091,0.871,-0.158,1.93,-4.62,0.61
2022-12-08 18:22:09.5340,-1.069,0.816,-0.119,2.01,-4.17,0.28
2022-12-08 18:22:09.5440,-1.036,0.754,-0.087,1.88,-3.46,-0.11
2022-12-08 18:22:09.5540,-1.008,0.69,-0.064,1.66,-2.68,-0.42
2022-12-08 18:22:09.5640,-0.981,0.627,-0.056,1.48,-1.89,-0.65
2022-12-08 18:22:09.5740,-0.951,0.569,-0.061,1.31,-1.1,-0.74
2022-12-08 18:22:09.5840,-0.914,0.519,-0.075,1.1,-0.39,-0.7
2022-12-08 18:22:09.5940,-0.87,0.473,-0.093,0.84,0.24,-0.59
2022-12-08 18:22:09.6040,-0.824,0.435,-0.11,0.49,0.81,-0.43
2022-12-08 18:22:09.6140,-0.783,0.405,-0.116,0.12,1.3,-0.3
2022-12-08 18:22:09.6240,-0.743,0.378,-0.111,-0.2,1.69,-0.28
2022-12-08 18:22:09.6340,-0.7,0.357,-0.097,-0.52,2.06,-0.38
2022-12-08 18:22:09.6440,-0.673,0.346,-0.077,-0.85,2.36,-0.56
2022-12-08 18:22:09.6540,-0.652,0.332,-0.055,-1.03,2.57,-0.81
2022-12-08 18:22:09.6640,-0.642,0.322,-0.032,-1.16,2.79,-1.07
2022-12-08 18:22:09.6740,-0.641,0.315,-0.016,-1.17,2.98,-1.34
2022-12-08 18:22:09.6840,-0.654,0.314,-0.002,-1.1,3.14,-1.52
2022-12-08 18:22:09.6940,-0.67,0.321,0.011,-0.89,3.24,-1.68
2022-12-08 18:22:09.7040,-0.672,0.322,0.015,-0.66,3.25,-1.81
2022-12-08 18:22:09.7140,-0.671,0.317,0.013,-0.57,3.33,-1.85
2022-12-08 18:22:09.7240,-0.673,0.323,0.003,-0.51,3.45,-1.82
2022-12-08 18:22:09.7350,-0.682,0.33,-0.016,-0.42,3.47,-1.7
2022-12-08 18:22:09.7440,-0.69,0.338,-0.042,-0.26,3.49,-1.49
2022-12-08 18:22:09.7550,-0.697,0.342,-0.07,-0.12,3.48,-1.21
2022-12-08 18:22:09.7650,-0.712,0.351,-0.093,0.02,3.52,-0.9
2022-12-08 18:22:09.7740,-0.728,0.366,-0.099,0.23,3.5,-0.65
2022-12-08 18:22:09.7850,-0.74,0.377,-0.096,0.45,3.42,-0.57
2022-12-08 18:22:09.7950,-0.754,0.386,-0.085,0.65,3.38,-0.59
2022-12-08 18:22:09.8050,-0.787,0.407,-0.071,0.85,3.36,-0.68
2022-12-08 18:22:09.8150,-0.842,0.449,-0.058,1.24,3.21,-0.8
2022-12-08 18:22:09.8250,-0.902,0.502,-0.049,1.84,2.87,-0.9
2022-12-08 18:22:09.8350,-0.958,0.556,-0.05,2.48,2.41,-0.96
2022-12-08 18:22:09.8450,-1.014,0.619,-0.06,3.09,1.93,-0.92
2022-12-08 18:22:09.8550,-1.06,0.687,-0.077,3.68,1.35,-0.77
2022-12-08 18:22:09.8650,-1.078,0.733,-0.108,4.16,0.72,-0.53
2022-12-08 18:22:09.8750,-1.058,0.743,-0.152,4.37,0.31,-0.16
2022-12-08 18:22:09.8850,-1.044,0.735,-0.208,4.2,0.25,0.37
2022-12-08 18:22:09.8950,-1.093,0.759,-0.259,4.1,0.36,1.0
2022-12-08 18:22:09.9050,-1.181,0.828,-0.295,4.61,0.16,1.6
2022-12-08 18:22:09.9150,-1.217,0.87,-0.331,5.5,-0.48,2.05
2022-12-08 18:22:09.9250,-1.19,0.862,-0.379,5.86,-0.87,2.51
2022-12-08 18:22:09.9350,-1.149,0.85,-0.438,5.6,-0.78,3.06
2022-12-08 18:22:09.9450,-1.088,0.831,-0.493,5.21,-0.65,3.71
2022-12-08 18:22:09.9550,-1.041,0.794,-0.526,4.62,-0.45,4.29
2022-12-08 18:22:09.9650,-1.044,0.769,-0.528,4.18,-0.08,4.63
2022-12-08 18:22:09.9750,-1.118,0.778,-0.491,4.22,0.19,4.63
2022-12-08 18:22:09.9850,-1.217,0.816,-0.422,4.97,0.1,4.23
2022-12-08 18:22:09.9950,-1.294,0.841,-0.356,5.94,-0.27,3.5
2022-12-08 18:22:10.0050,-1.372,0.857,-0.308,6.7,-0.52,2.8
2022-12-08 18:22:10.0150,-1.435,0.873,-0.275,7.44,-0.7,2.29
2022-12-08 18:22:10.0250,-1.464,0.873,-0.251,8.01,-0.89,1.93
2022-12-08 18:22:10.0350,-1.468,0.866,-0.246,8.23,-0.96,1.67
2022-12-08 18:22:10.0450,-1.434,0.861,-0.254,8.17,-0.97,1.61
2022-12-08 18:22:10.0550,-1.361,0.847,-0.27,7.71,-1.02,1.69
2022-12-08 18:22:10.0650,-1.283,0.834,-0.292,6.85,-1.01,1.84
2022-12-08 18:22:10.0750,-1.204,0.823,-0.319,5.93,-1.02,2.06
2022-12-08 18:22:10.0850,-1.105,0.796,-0.344,4.99,-1.07,2.31
2022-12-08 18:22:10.0950,-0.996,0.752,-0.36,3.85,-0.98,2.52
2022-12-08 18:22:10.1050,-0.893,0.701,-0.365,2.62,-0.73,2.63
2022-12-08 18:22:10.1150,-0.803,0.651,-0.36,1.45,-0.41,2.61
2022-12-08 18:22:10.1250,-0.737,0.61,-0.337,0.42,-0.11,2.46
2022-12-08 18:22:10.1350,-0.687,0.575,-0.299,-0.38,0.09,2.12
2022-12-08 18:22:10.1450,-0.643,0.548,-0.259,-1.01,0.23,1.62
2022-12-08 18:22:10.1550,-0.611,0.531,-0.221,-1.57,0.28,1.09
2022-12-08 18:22:10.1660,-0.586,0.519,-0.185,-2.02,0.23,0.58
2022-12-08 18:22:10.1750,-0.568,0.509,-0.147,-2.38,0.12,0.08
2022-12-08 18:22:10.1860,-0.557,0.507,-0.107,-2.68,-0.01,-0.43
2022-12-08 18:22:10.1960,-0.547,0.517,-0.067,-2.89,-0.23,-0.94
2022-12-08 18:22:10.2060,-0.527,0.527,-0.031,-3.1,-0.57,-1.44
2022-12-08 18:22:10.2160,-0.5,0.532,0.002,-3.4,-0.92,-1.88
2022-12-08 18:22:10.2260,-0.476,0.538,0.027,-3.76,-1.22,-2.27
2022-12-08 18:22:10.2360,-0.456,0.55,0.041,-4.1,-1.51,-2.55
2022-12-08 18:22:10.2460,-0.436,0.566,0.043,-4.39,-1.87,-2.71
2022-12-08 18:22:10.2560,-0.415,0.578,0.033,-4.67,-2.26,-2.73
2022-12-08 18:22:10.2660,-0.401,0.588,0.016,-4.97,-2.6,-2.61
2022-12-08 18:22:10.2760,-0.396,0.604,-0.005,-5.18,-2.9,-2.4
2022-12-08 18:22:10.2860,-0.39,0.615,-0.021,-5.29,-3.24,-2.15
2022-12-08 18:22:10.2960,-0.388,0.618,-0.035,-5.41,-3.51,-1.94
2022-12-08 18:22:10.3060,-0.396,0.625,-0.048,-5.49,-3.69,-1.75
2022-12-08 18:22:10.3160,-0.421,0.647,-0.062,-5.45,-3.88,-1.56
2022-12-08 18:22:10.3260,-0.463,0.689,-0.07,-5.24,-4.2,-1.37
2022-12-08 18:22:10.3360,-0.513,0.75,-0.075,-4.86,-4.7,-1.23
2022-12-08 18:22:10.3460,-0.549,0.806,-0.086,-4.39,-5.36,-1.13
2022-12-08 18:22:10.3560,-0.565,0.84,-0.102,-4.06,-5.96,-0.97
2022-12-08 18:22:10.3660,-0.589,0.855,-0.13,-3.91,-6.32,-0.76
2022-12-08 18:22:10.3760,-0.578,0.87,-0.164,-3.69,-6.47,-0.44
2022-12-08 18:22:10.3860,-0.592,0.879,-0.178,-3.8,-6.58,-0.05
2022-12-08 18:22:10.3960,-0.695,0.919,-0.186,-3.66,-6.61,0.15
2022-12-08 18:22:10.4060,-0.82,0.994,-0.185,-2.64,-6.93,0.28
2022-12-08 18:22:10.4160,-0.876,1.041,-0.168,-1.41,-7.58,0.34
2022-12-08 18:22:10.4260,-0.86,1.029,-0.16,-0.84,-7.94,0.24
2022-12-08 18:22:10.4380,-0.821,1.003,-0.174,-0.98,-7.7,0.22
2022-12-08 18:22:10.4460,-0.783,0.978,-0.208,-1.34,-7.3,0.41
2022-12-08 18:22:10.4560,-0.731,0.921,-0.251,-1.67,-6.9,0.78
2022-12-08 18:22:10.4660,-0.703,0.859,-0.306,-2.13,-6.16,1.25
2022-12-08 18:22:10.4760,-0.72,0.835,-0.36,-2.35,-5.35,1.81
2022-12-08 18:22:10.4860,-0.788,0.834,-0.39,-2.1,-4.88,2.36
2022-12-08 18:22:10.4960,-0.875,0.844,-0.394,-1.34,-4.64,2.67
2022-12-08 18:22:10.5060,-0.951,0.849,-0.369,-0.4,-4.5,2.72
2022-12-08 18:22:10.5160,-1.008,0.83,-0.316,0.45,-4.3,2.45
2022-12-08 18:22:10.5260,-1.058,0.794,-0.245,1.12,-3.89,1.9
2022-12-08 18:22:10.5360,-1.099,0.754,-0.163,1.73,-3.32,1.16
2022-12-08 18:22:10.5460,-1.109,0.703,-0.077,2.24,-2.73,0.31
2022-12-08 18:22:10.5570,-1.095,0.644,0.006,2.45,-2.06,-0.58
2022-12-08 18:22:10.5670,-1.063,0.584,0.074,2.4,-1.33,-1.43
2022-12-08 18:22:10.5760,-1.017,0.531,0.121,2.17,-0.61,-2.12
2022-12-08 18:22:10.5870,-0.957,0.486,0.143,1.8,0.03,-2.6
2022-12-08 18:22:10.5970,-0.886,0.446,0.13,1.28,0.57,-2.81
2022-12-08 18:22:10.6070,-0.819,0.42,0.085,0.64,1.06,-2.68
2022-12-08 18:22:10.6170,-0.769,0.411,0.009,0.05,1.39,-2.23
2022-12-08 18:22:10.6270,-0.717,0.405,-0.069,-0.39,1.57,-1.48
2022-12-08 18:22:10.6370,-0.659,0.394,-0.135,-0.84,1.7,-0.72
2022-12-08 18:22:10.6470,-0.615,0.377,-0.181,-1.35,1.89,-0.1
2022-12-08 18:22:10.6570,-0.578,0.365,-0.21,-1.72,2.14,0.32
2022-12-08 18:22:10.6670,-0.553,0.354,-0.218,-2.01,2.34,0.57
2022-12-08 18:22:10.6770,-0.538,0.348,-0.203,-2.19,2.52,0.6
2022-12-08 18:22:10.6870,-0.531,0.349,-0.173,-2.26,2.66,0.42
2022-12-08 18:22:10.6970,-0.532,0.356,-0.142,-2.26,2.74,0.09
2022-12-08 18:22:10.7070,-0.537,0.369,-0.114,-2.17,2.75,-0.24
2022-12-08 18:22:10.7170,-0.541,0.385,-0.095,-2.05,2.7,-0.53
2022-12-08 18:22:10.7270,-0.546,0.4,-0.075,-1.93,2.63,-0.74
2022-12-08 18:22:10.7370,-0.553,0.419,-0.053,-1.8,2.58,-0.93
2022-12-08 18:22:10.7470,-0.566,0.437,-0.029,-1.64,2.49,-1.14
2022-12-08 18:22:10.7570,-0.594,0.449,-0.015,-1.42,2.42,-1.36
2022-12-08 18:22:10.7670,-0.633,0.461,-0.016,-1.03,2.42,-1.47
2022-12-08 18:22:10.7770,-0.674,0.474,-0.032,-0.55,2.42,-1.43
2022-12-08 18:22:10.7870,-0.715,0.488,-0.055,-0.02,2.41,-1.24
2022-12-08 18:22:10.7970,-0.757,0.503,-0.078,0.49,2.39,-0.97
2022-12-08 18:22:10.8070,-0.807,0.532,-0.089,1.03,2.35,-0.72
2022-12-08 18:22:10.8170,-0.867,0.566,-0.086,1.65,2.19,-0.58
2022-12-08 18:22:10.8270,-0.938,0.61,-0.076,2.36,1.96,-0.58
2022-12-08 18:22:10.8370,-1.009,0.666,-0.064,3.17,1.63,-0.65
2022-12-08 18:22:10.8470,-1.071,0.725,-0.057,3.97,1.16,-0.73
2022-12-08 18:22:10.8570,-1.117,0.768,-0.065,4.68,0.68,-0.75
2022-12-08 18:22:10.8670,-1.144,0.801,-0.09,5.22,0.32,-0.62
2022-12-08 18:22:10.8770,-1.144,0.817,-0.132,5.56,0.06,-0.31
2022-12-08 18:22:10.8870,-1.119,0.807,-0.19,5.63,-0.03,0.17
2022-12-08 18:22:10.8970,-1.08,0.773,-0.258,5.45,0.12,0.82
2022-12-08 18:22:10.9070,-1.086,0.754,-0.321,5.14,0.51,1.56
2022-12-08 18:22:10.9170,-1.157,0.791,-0.362,5.25,0.74,2.24
2022-12-08 18:22:10.9270,-1.217,0.841,-0.379,5.99,0.4,2.69
2022-12-08 18:22:10.9370,-1.207,0.844,-0.383,6.61,-0.06,2.88
2022-12-08 18:22:10.9470,-1.151,0.832,-0.383,6.52,-0.08,2.94
2022-12-08 18:22:10.9580,-1.082,0.831,-0.364,5.97,0.04,2.93
2022-12-08 18:22:10.9680,-1.025,0.816,-0.324,5.3,0.05,2.71
2022-12-08 18:22:10.9770,-1.017,0.808,-0.282,4.73,0.19,2.28
2022-12-08 18:22:10.9870,-1.061,0.818,-0.245,4.66,0.26,1.82
2022-12-08 18:22:10.9980,-1.115,0.822,-0.222,5.09,0.16,1.41
2022-12-08 18:22:11.0080,-1.159,0.81,-0.218,5.61,0.1,1.14
2022-12-08 18:22:11.0180,-1.201,0.795,-0.222,6.01,0.2,1.06
2022-12-08 18:22:11.0280,-1.242,0.796,-0.228,6.37,0.31,1.08
2022-12-08 18:22:11.0380,-1.27,0.814,-0.23,6.7,0.25,1.11
2022-12-08 18:22:11.0480,-1.27,0.833,-0.236,6.87,0.0,1.12
2022-12-08 18:22:11.0580,-1.239,0.848,-0.243,6.74,-0.28,1.18
2022-12-08 18:22:11.0680,-1.183,0.856,-0.254,6.3,-0.53,1.25
2022-12-08 18:22:11.0790,-1.126,0.864,-0.27,5.58,-0.74,1.37
2022-12-08 18:22:11.0880,-1.066,0.866,-0.288,4.84,-0.96,1.54
2022-12-08 18:22:11.1000,-1.001,0.85,-0.31,4.08,-1.13,1.73
2022-12-08 18:22:11.1080,-0.927,0.818,-0.332,3.25,-1.14,1.95
2022-12-08 18:22:11.1180,-0.86,0.777,-0.349,2.35,-0.99,2.15
2022-12-08 18:22:11.1280,-0.799,0.731,-0.355,1.52,-0.75,2.29
2022-12-08 18:22:11.1380,-0.751,0.686,-0.348,0.76,-0.48,2.3
2022-12-08 18:22:11.1480,-0.713,0.642,-0.324,0.13,-0.21,2.15
2022-12-08 18:22:11.1580,-0.682,0.604,-0.286,-0.38,0.02,1.82
2022-12-08 18:22:11.1680,-0.663,0.571,-0.247,-0.83,0.21,1.33
2022-12-08 18:22:11.1780,-0.656,0.547,-0.209,-1.15,0.32,0.82
2022-12-08 18:22:11.1880,-0.653,0.535,-0.17,-1.36,0.34,0.32
2022-12-08 18:22:11.1980,-0.644,0.531,-0.128,-1.52,0.23,-0.19
2022-12-08 18:22:11.2080,-0.624,0.534,-0.084,-1.74,0.03,-0.73
2022-12-08 18:22:11.2180,-0.596,0.544,-0.04,-2.07,-0.26,-1.29
2022-12-08 18:22:11.2280,-0.563,0.552,0.001,-2.47,-0.63,-1.82
2022-12-08 18:22:11.2380,-0.524,0.557,0.031,-2.92,-0.97,-2.32
2022-12-08 18:22:11.2480,-0.5,0.562,0.057,-3.41,-1.29,-2.69
2022-12-08 18:22:11.2580,-0.48,0.574,0.065,-3.76,-1.6,-3.0
2022-12-08 18:22:11.2680,-0.454,0.588,0.055,-4.06,-1.97,-3.1
2022-12-08 18:22:11.2780,-0.428,0.594,0.031,-4.41,-2.35,-3.01
2022-12-08 18:22:11.2880,-0.412,0.601,-0.001,-4.75,-2.64,-2.76
2022-12-08 18:22:11.2980,-0.403,0.617,-0.037,-4.99,-2.91,-2.42
2022-12-08 18:22:11.3080,-0.396,0.633,-0.069,-5.15,-3.26,-2.03
2022-12-08 18:22:11.3180,-0.394,0.641,-0.099,-5.28,-3.59,-1.67
2022-12-08 18:22:11.3280,-0.409,0.653,-0.124,-5.35,-3.81,-1.32
2022-12-08 18:22:11.3380,-0.452,0.688,-0.145,-5.25,-4.05,-1.03
2022-12-08 18:22:11.3480,-0.504,0.743,-0.159,-4.86,-4.5,-0.78
2022-12-08 18:22:11.3580,-0.559,0.804,-0.163,-4.38,-5.12,-0.59
2022-12-08 18:22:11.3680,-0.589,0.854,-0.162,-3.87,-5.78,-0.52
2022-12-08 18:22:11.3780,-0.6,0.873,-0.157,-3.59,-6.31,-0.49
2022-12-08 18:22:11.3880,-0.603,0.879,-0.154,-3.49,-6.52,-0.51
2022-12-08 18:22:11.3990,-0.599,0.872,-0.155,-3.47,-6.57,-0.51
2022-12-08 18:22:11.4090,-0.62,0.863,-0.16,-3.5,-6.46,-0.48
2022-12-08 18:22:11.4190,-0.695,0.9,-0.159,-3.29,-6.32,-0.4
2022-12-08 18:22:11.4290,-0.765,0.955,-0.144,-2.54,-6.61,-0.39
2022-12-08 18:22:11.4390,-0.769,0.962,-0.13,-1.83,-7.05,-0.52
2022-12-08 18:22:11.4490,-0.73,0.928,-0.124,-1.77,-7.01,-0.62
2022-12-08 18:22:11.4590,-0.69,0.901,-0.137,-2.13,-6.56,-0.67
2022-12-08 18:22:11.4690,-0.666,0.883,-0.164,-2.49,-6.15,-0.51
2022-12-08 18:22:11.4790,-0.654,0.856,-0.2,-2.67,-5.8,-0.22
2022-12-08 18:22:11.4890,-0.677,0.833,-0.237,-2.73,-5.33,0.15
2022-12-08 18:22:11.4990,-0.743,0.84,-0.267,-2.43,-4.9,0.54
2022-12-08 18:22:11.5090,-0.826,0.866,-0.284,-1.7,-4.74,0.85
2022-12-08 18:22:11.5190,-0.906,0.895,-0.289,-0.81,-4.76,1.05
2022-12-08 18:22:11.5290,-0.979,0.924,-0.282,0.08,-4.82,1.11
2022-12-08 18:22:11.5390,-1.042,0.942,-0.265,0.9,-4.88,1.05
2022-12-08 18:22:11.5490,-1.074,0.932,-0.234,1.63,-4.84,0.89
2022-12-08 18:22:11.5590,-1.074,0.893,-0.193,2.05,-4.53,0.59
2022-12-08 18:22:11.5690,-1.053,0.833,-0.152,2.16,-3.93,0.17
2022-12-08 18:22:11.5790,-1.026,0.766,-0.121,2.08,-3.15,-0.23
2022-12-08 18:22:11.5890,-1.003,0.705,-0.102,1.94,-2.3,-0.54
2022-12-08 18:22:11.5990,-0.981,0.652,-0.097,1.83,-1.53,-0.73
2022-12-08 18:22:11.6090,-0.944,0.601,-0.109,1.72,-0.84,-0.77
2022-12-08 18:22:11.6190,-0.897,0.554,-0.131,1.47,-0.18,-0.66
2022-12-08 18:22:11.6290,-0.846,0.514,-0.155,1.12,0.42,-0.44
2022-12-08 18:22:11.6390,-0.796,0.479,-0.169,0.72,0.94,-0.22
2022-12-08 18:22:11.6490,-0.746,0.446,-0.171,0.33,1.41,-0.09
2022-12-08 18:22:11.6590,-0.705,0.415,-0.161,-0.06,1.85,-0.09
2022-12-08 18:22:11.6690,-0.671,0.387,-0.144,-0.36,2.26,-0.22
2022-12-08 18:22:11.6790,-0.645,0.357,-0.123,-0.59,2.65,-0.42
2022-12-08 18:22:11.6890,-0.633,0.324,-0.102,-0.74,3.05,-0.65
2022-12-08 18:22:11.6990,-0.632,0.298,-0.085,-0.75,3.48,-0.87
2022-12-08 18:22:11.7090,-0.633,0.279,-0.067,-0.66,3.83,-1.06
2022-12-08 18:22:11.7190,-0.639,0.262,-0.05,-0.55,4.12,-1.25
2022-12-08 18:22:11.7290,-0.645,0.251,-0.04,-0.4,4.37,-1.4
2022-12-08 18:22:11.7390,-0.657,0.25,-0.036,-0.27,4.56,-1.49
2022-12-08 18:22:11.7490,-0.676,0.262,-0.04,-0.07,4.64,-1.51
2022-12-08 18:22:11.7600,-0.695,0.286,-0.051,0.18,4.59,-1.43
2022-12-08 18:22:11.7700,-0.708,0.326,-0.069,0.42,4.42,-1.28
2022-12-08 18:22:11.7790,-0.712,0.372,-0.093,0.59,4.07,-1.05
2022-12-08 18:22:11.7890,-0.709,0.412,-0.117,0.67,3.67,-0.76
2022-12-08 18:22:11.8000,-0.697,0.442,-0.145,0.68,3.32,-0.45
2022-12-08 18:22:11.8100,-0.691,0.465,-0.17,0.6,3.08,-0.12
2022-12-08 18:22:11.8200,-0.699,0.491,-0.186,0.58,2.9,0.18
2022-12-08 18:22:11.8300,-0.726,0.521,-0.195,0.71,2.68,0.4
2022-12-08 18:22:11.8400,-0.769,0.553,-0.199,1.01,2.44,0.53
2022-12-08 18:22:11.8500,-0.827,0.582,-0.197,1.49,2.18,0.62
2022-12-08 18:22:11.8600,-0.898,0.623,-0.198,2.11,1.95,0.65
2022-12-08 18:22:11.8700,-0.969,0.673,-0.2,2.86,1.59,0.72
2022-12-08 18:22:11.8800,-1.025,0.717,-0.206,3.61,1.15,0.79
2022-12-08 18:22:11.8900,-1.055,0.744,-0.222,4.2,0.76,0.91
2022-12-08 18:22:11.9000,-1.054,0.749,-0.251,4.53,0.53,1.14
2022-12-08 18:22:11.9100,-1.024,0.723,-0.295,4.55,0.51,1.5
2022-12-08 18:22:11.9200,-1.008,0.693,-0.339,4.29,0.8,2.0
2022-12-08 18:22:11.9300,-1.078,0.723,-0.37,4.16,1.12,2.5
2022-12-08 18:22:11.9400,-1.195,0.813,-0.379,4.87,0.84,2.85
2022-12-08 18:22:11.9500,-1.246,0.872,-0.382,6.02,-0.03,3.0
2022-12-08 18:22:11.9600,-1.211,0.874,-0.4,6.5,-0.61,3.08
2022-12-08 18:22:11.9700,-1.13,0.865,-0.435,6.14,-0.65,3.28
2022-12-08 18:22:11.9800,-1.025,0.837,-0.47,5.32,-0.58,3.64
2022-12-08 18:22:11.9900,-0.926,0.78,-0.484,4.26,-0.32,3.97
2022-12-08 18:22:12.0000,-0.876,0.729,-0.472,3.27,0.22,4.07
2022-12-08 18:22:12.0100,-0.925,0.731,-0.427,2.77,0.71,3.89
2022-12-08 18:22:12.0200,-1.035,0.788,-0.372,3.25,0.68,3.38
2022-12-08 18:22:12.0300,-1.12,0.836,-0.315,4.31,0.1,2.76
2022-12-08 18:22:12.0400,-1.165,0.864,-0.269,5.12,-0.4,2.12
2022-12-08 18:22:12.0500,-1.184,0.874,-0.235,5.52,-0.71,1.6
2022-12-08 18:22:12.0600,-1.194,0.881,-0.212,5.64,-0.87,1.22
2022-12-08 18:22:12.0700,-1.197,0.893,-0.197,5.66,-1.0,0.96
2022-12-08 18:22:12.0800,-1.194,0.898,-0.198,5.6,-1.2,0.79
2022-12-08 18:22:12.0900,-1.18,0.891,-0.216,5.47,-1.34,0.8
2022-12-08 18:22:12.1000,-1.155,0.879,-0.245,5.21,-1.36,0.98
2022-12-08 18:22:12.1100,-1.125,0.857,-0.278,4.84,-1.35,1.28
2022-12-08 18:22:12.1200,-1.079,0.819,-0.312,4.41,-1.25,1.63
2022-12-08 18:22:12.1300,-1.024,0.762,-0.345,3.83,-1.0,1.98
2022-12-08 18:22:12.1400,-0.959,0.693,-0.374,3.16,-0.57,2.3
2022-12-08 18:22:12.1500,-0.903,0.626,-0.389,2.39,-0.03,2.56
2022-12-08 18:22:12.1600,-0.859,0.571,-0.385,1.71,0.48,2.66
2022-12-08 18:22:12.1710,-0.825,0.53,-0.358,1.15,0.85,2.54
2022-12-08 18:22:12.1800,-0.792,0.504,-0.307,0.68,1.09,2.18
2022-12-08 18:22:12.1910,-0.757,0.493,-0.247,0.22,1.15,1.56
2022-12-08 18:22:12.2010,-0.728,0.492,-0.194,-0.27,1.05,0.86
2022-12-08 18:22:12.2110,-0.702,0.502,-0.147,-0.69,0.83,0.22
2022-12-08 18:22:12.2210,-0.674,0.518,-0.101,-1.09,0.49,-0.37
2022-12-08 18:22:12.2310,-0.645,0.54,-0.065,-1.51,0.09,-0.93
2022-12-08 18:22:12.2410,-0.616,0.562,-0.042,-1.93,-0.39,-1.38
2022-12-08 18:22:12.2510,-0.586,0.585,-0.029,-2.35,-0.88,-1.69
2022-12-08 18:22:12.2610,-0.559,0.614,-0.024,-2.77,-1.38,-1.89
2022-12-08 18:22:12.2710,-0.525,0.634,-0.026,-3.16,-1.95,-1.99
2022-12-08 18:22:12.2810,-0.498,0.645,-0.025,-3.61,-2.42,-2.01
2022-12-08 18:22:12.2910,-0.477,0.658,-0.024,-3.98,-2.8,-2.04
2022-12-08 18:22:12.3010,-0.457,0.671,-0.027,-4.29,-3.19,-2.05
2022-12-08 18:22:12.3110,-0.439,0.684,-0.032,-4.57,-3.57,-2.01
2022-12-08 18:22:12.3210,-0.423,0.691,-0.037,-4.83,-3.93,-1.94
2022-12-08 18:22:12.3310,-0.409,0.701,-0.04,-5.06,-4.21,-1.87
2022-12-08 18:22:12.3410,-0.401,0.715,-0.043,-5.26,-4.51,-1.8
2022-12-08 18:22:12.3510,-0.399,0.735,-0.046,-5.39,-4.82,-1.73
2022-12-08 18:22:12.3610,-0.408,0.763,-0.044,-5.45,-5.17,-1.67
2022-12-08 18:22:12.3710,-0.428,0.805,-0.038,-5.4,-5.58,-1.67
2022-12-08 18:22:12.3810,-0.445,0.842,-0.033,-5.22,-6.09,-1.7
2022-12-08 18:22:12.3910,-0.459,0.87,-0.027,-5.08,-6.52,-1.74
2022-12-08 18:22:12.4010,-0.468,0.891,-0.029,-4.94,-6.84,-1.78
2022-12-08 18:22:12.4110,-0.466,0.897,-0.039,-4.86,-7.04,-1.76
2022-12-08 18:22:12.4210,-0.463,0.889,-0.057,-4.87,-7.08,-1.65
2022-12-08 18:22:12.4310,-0.504,0.899,-0.077,-4.9,-6.93,-1.46
2022-12-08 18:22:12.4410,-0.597,0.958,-0.087,-4.48,-6.94,-1.24
2022-12-08 18:22:12.4510,-0.649,1.006,-0.086,-3.55,-7.4,-1.12
2022-12-08 18:22:12.4610,-0.618,0.976,-0.096,-3.02,-7.74,-1.09
2022-12-08 18:22:12.4710,-0.59,0.931,-0.133,-3.29,-7.28,-0.95
2022-12-08 18:22:12.4810,-0.619,0.928,-0.184,-3.52,-6.65,-0.54
2022-12-08 18:22:12.4910,-0.654,0.915,-0.229,-3.19,-6.39,0.02
2022-12-08 18:22:12.5010,-0.69,0.878,-0.269,-2.79,-6.03,0.53
2022-12-08 18:22:12.5110,-0.767,0.861,-0.296,-2.36,-5.4,0.98
2022-12-08 18:22:12.5210,-0.878,0.883,-0.305,-1.51,-4.97,1.32
2022-12-08 18:22:12.5310,-0.994,0.914,-0.3,-0.33,-4.91,1.49
2022-12-08 18:22:12.5410,-1.096,0.944,-0.284,0.91,-4.95,1.5
2022-12-08 18:22:12.5510,-1.168,0.966,-0.255,2.02,-5.0,1.41
2022-12-08 18:22:12.5610,-1.21,0.965,-0.213,2.84,-4.99,1.18
2022-12-08 18:22:12.5710,-1.219,0.94,-0.167,3.36,-4.76,0.82
2022-12-08 18:22:12.5810,-1.203,0.895,-0.121,3.56,-4.31,0.4
2022-12-08 18:22:12.5910,-1.181,0.84,-0.082,3.51,-3.67,-0.02
2022-12-08 18:22:12.6010,-1.163,0.783,-0.057,3.4,-2.95,-0.36
2022-12-08 18:22:12.6110,-1.135,0.721,-0.048,3.33,-2.22,-0.57
2022-12-08 18:22:12.6210,-1.093,0.654,-0.057,3.17,-1.46,-0.63
2022-12-08 18:22:12.6310,-1.041,0.592,-0.089,2.85,-0.66,-0.51
2022-12-08 18:22:12.6410,-0.981,0.54,-0.137,2.42,0.08,-0.17
2022-12-08 18:22:12.6520,-0.91,0.494,-0.182,1.92,0.7,0.32
2022-12-08 18:22:12.6620,-0.836,0.451,-0.215,1.3,1.24,0.76
2022-12-08 18:22:12.6720,-0.761,0.407,-0.222,0.65,1.76,1.06
2022-12-08 18:22:12.6820,-0.687,0.369,-0.206,-0.01,2.27,1.1
2022-12-08 18:22:12.6920,-0.632,0.338,-0.174,-0.66,2.72,0.88
2022-12-08 18:22:12.7020,-0.596,0.312,-0.137,-1.12,3.09,0.5
2022-12-08 18:22:12.7120,-0.569,0.291,-0.098,-1.4,3.42,0.07
2022-12-08 18:22:12.7220,-0.556,0.279,-0.057,-1.59,3.7,-0.37
2022-12-08 18:22:12.7320,-0.552,0.275,-0.021,-1.65,3.9,-0.83
2022-12-08 18:22:12.7420,-0.552,0.272,0.006,-1.61,4.0,-1.23
2022-12-08 18:22:12.7520,-0.555,0.268,0.029,-1.54,4.09,-1.52
2022-12-08 18:22:12.7620,-0.569,0.277,0.048,-1.45,4.19,-1.76
2022-12-08 18:22:12.7720,-0.589,0.3,0.061,-1.25,4.16,-1.94
2022-12-08 18:22:12.7820,-0.607,0.327,0.059,-1.0,4.0,-2.04
2022-12-08 18:22:12.7920,-0.627,0.358,0.047,-0.78,3.78,-1.99
2022-12-08 18:22:12.8020,-0.652,0.399,0.019,-0.53,3.54,-1.81
2022-12-08 18:22:12.8120,-0.674,0.435,-0.014,-0.24,3.19,-1.48
2022-12-08 18:22:12.8220,-0.688,0.456,-0.049,0.03,2.89,-1.1
2022-12-08 18:22:12.8320,-0.702,0.459,-0.075,0.23,2.75,-0.7
2022-12-08 18:22:12.8420,-0.738,0.463,-0.091,0.42,2.79,-0.38
2022-12-08 18:22:12.8520,-0.807,0.488,-0.092,0.84,2.82,-0.18
2022-12-08 18:22:12.8620,-0.884,0.525,-0.082,1.59,2.64,-0.11
2022-12-08 18:22:12.8720,-0.955,0.57,-0.068,2.41,2.34,-0.16
2022-12-08 18:22:12.8820,-1.026,0.624,-0.056,3.17,1.95,-0.25
2022-12-08 18:22:12.8920,-1.087,0.678,-0.049,3.92,1.48,-0.32
2022-12-08 18:22:12.9020,-1.138,0.727,-0.054,4.57,0.99,-0.32
2022-12-08 18:22:12.9120,-1.162,0.746,-0.076,5.11,0.55,-0.21
2022-12-08 18:22:12.9220,-1.164,0.735,-0.111,5.38,0.4,0.09
2022-12-08 18:22:12.9320,-1.186,0.736,-0.149,5.42,0.53,0.53
2022-12-08 18:22:12.9420,-1.248,0.778,-0.192,5.65,0.54,1.0
2022-12-08 18:22:12.9520,-1.282,0.824,-0.236,6.26,0.13,1.54
2022-12-08 18:22:12.9620,-1.239,0.823,-0.296,6.57,-0.33,2.08
2022-12-08 18:22:12.9720,-1.163,0.803,-0.367,6.12,-0.34,2.77
2022-12-08 18:22:12.9830,-1.074,0.771,-0.434,5.34,-0.17,3.54
2022-12-08 18:22:12.9920,-1.01,0.737,-0.478,4.43,0.11,4.24
2022-12-08 18:22:13.0030,-0.999,0.731,-0.487,3.76,0.42,4.7
2022-12-08 18:22:13.0130,-1.053,0.762,-0.444,3.62,0.45,4.76
2022-12-08 18:22:13.0230,-1.134,0.825,-0.355,4.11,0.11,4.28
2022-12-08 18:22:13.0330,-1.193,0.891,-0.259,4.86,-0.54,3.35
2022-12-08 18:22:13.0430,-1.234,0.945,-0.191,5.38,-1.24,2.36
2022-12-08 18:22:13.0530,-1.247,0.977,-0.149,5.73,-1.82,1.64
2022-12-08 18:22:13.0630,-1.227,0.977,-0.136,5.78,-2.2,1.2
2022-12-08 18:22:13.0730,-1.187,0.957,-0.163,5.51,-2.27,1.07
2022-12-08 18:22:13.0830,-1.143,0.917,-0.21,5.03,-2.15,1.34
2022-12-08 18:22:13.0930,-1.107,0.871,-0.264,4.51,-1.83,1.83
2022-12-08 18:22:13.1030,-1.065,0.829,-0.304,4.07,-1.46,2.37
2022-12-08 18:22:13.1130,-1.02,0.793,-0.327,3.57,-1.14,2.77
2022-12-08 18:22:13.1230,-0.957,0.751,-0.329,3.03,-0.88,2.99
2022-12-08 18:22:13.1330,-0.885,0.704,-0.322,2.32,-0.58,2.99
2022-12-08 18:22:13.1430,-0.818,0.664,-0.321,1.51,-0.21,2.87
2022-12-08 18:22:13.1530,-0.761,0.629,-0.323,0.76,0.06,2.81
2022-12-08 18:22:13.1630,-0.708,0.587,-0.313,0.1,0.3,2.74
2022-12-08 18:22:13.1730,-0.658,0.538,-0.281,-0.51,0.61,2.55
2022-12-08 18:22:13.1830,-0.618,0.496,-0.244,-1.08,0.98,2.12
2022-12-08 18:22:13.1930,-0.598,0.463,-0.213,-1.56,1.28,1.64
2022-12-08 18:22:13.2030,-0.589,0.44,-0.176,-1.83,1.49,1.22
2022-12-08 18:22:13.2130,-0.584,0.425,-0.133,-1.99,1.58,0.74
2022-12-08 18:22:13.2230,-0.582,0.415,-0.083,-2.12,1.61,0.2
2022-12-08 18:22:13.2330,-0.584,0.413,-0.036,-2.23,1.56,-0.39
2022-12-08 18:22:13.2430,-0.587,0.421,0.008,-2.31,1.43,-0.94
2022-12-08 18:22:13.2530,-0.586,0.44,0.044,-2.37,1.19,-1.45
2022-12-08 18:22:13.2630,-0.579,0.46,0.079,-2.48,0.84,-1.87
2022-12-08 18:22:13.2730,-0.569,0.48,0.102,-2.64,0.47,-2.24
2022-12-08 18:22:13.2830,-0.566,0.504,0.115,-2.84,0.09,-2.49
2022-12-08 18:22:13.2930,-0.569,0.54,0.115,-2.97,-0.33,-2.62
2022-12-08 18:22:13.3030,-0.569,0.58,0.1,-3.04,-0.86,-2.61
2022-12-08 18:22:13.3130,-0.568,0.61,0.071,-3.14,-1.43,-2.44
2022-12-08 18:22:13.3230,-0.561,0.63,0.037,-3.23,-1.9,-2.12
2022-12-08 18:22:13.3330,-0.554,0.648,0.006,-3.38,-2.25,-1.74
2022-12-08 18:22:13.3430,-0.549,0.663,-0.022,-3.53,-2.59,-1.4
2022-12-08 18:22:13.3530,-0.554,0.681,-0.043,-3.64,-2.89,-1.08
2022-12-08 18:22:13.3630,-0.571,0.714,-0.054,-3.66,-3.22,-0.84
2022-12-08 18:22:13.3730,-0.591,0.761,-0.052,-3.54,-3.67,-0.7
2022-12-08 18:22:13.3830,-0.605,0.808,-0.041,-3.4,-4.26,-0.69
2022-12-08 18:22:13.3930,-0.61,0.854,-0.029,-3.31,-4.84,-0.77
2022-12-08 18:22:13.4030,-0.601,0.895,-0.02,-3.3,-5.39,-0.87
2022-12-08 18:22:13.4140,-0.579,0.922,-0.014,-3.41,-5.89,-0.94
2022-12-08 18:22:13.4240,-0.561,0.936,-0.016,-3.65,-6.21,-0.99
2022-12-08 18:22:13.4340,-0.577,0.964,-0.023,-3.84,-6.39,-0.95
2022-12-08 18:22:13.4440,-0.615,1.009,-0.029,-3.69,-6.67,-0.86
2022-12-08 18:22:13.4540,-0.632,1.027,-0.036,-3.31,-7.1,-0.78
2022-12-08 18:22:13.4640,-0.621,1.015,-0.052,-3.14,-7.24,-0.68
2022-12-08 18:22:13.4740,-0.618,1.001,-0.089,-3.23,-7.06,-0.49
2022-12-08 18:22:13.4840,-0.617,0.983,-0.137,-3.24,-6.82,-0.09
2022-12-08 18:22:13.4940,-0.6,0.935,-0.192,-3.2,-6.52,0.42
2022-12-08 18:22:13.5040,-0.591,0.88,-0.246,-3.33,-5.9,1.0
2022-12-08 18:22:13.5140,-0.621,0.843,-0.293,-3.35,-5.18,1.57
2022-12-08 18:22:13.5240,-0.698,0.841,-0.329,-2.99,-4.63,2.08
2022-12-08 18:22:13.5340,-0.793,0.851,-0.34,-2.14,-4.39,2.46
2022-12-08 18:22:13.5440,-0.888,0.861,-0.324,-1.11,-4.27,2.61
2022-12-08 18:22:13.5540,-0.981,0.876,-0.281,-0.09,-4.15,2.46
2022-12-08 18:22:13.5640,-1.053,0.883,-0.221,0.94,-4.08,2.04
2022-12-08 18:22:13.5740,-1.106,0.866,-0.138,1.76,-3.94,1.43
2022-12-08 18:22:13.5840,-1.146,0.836,-0.045,2.39,-3.59,0.57
2022-12-08 18:22:13.5940,-1.165,0.789,0.046,2.9,-3.11,-0.39
2022-12-08 18:22:13.6040,-1.17,0.731,0.128,3.19,-2.49,-1.33
2022-12-08 18:22:13.6140,-1.156,0.667,0.187,3.33,-1.78,-2.17
2022-12-08 18:22:13.6240,-1.113,0.6,0.218,3.27,-1.04,-2.77
2022-12-08 18:22:13.6340,-1.048,0.55,0.214,2.92,-0.29,-3.09
2022-12-08 18:22:13.6440,-0.967,0.533,0.169,2.33,0.27,-3.05
2022-12-08 18:22:13.6540,-0.879,0.533,0.083,1.57,0.5,-2.6
2022-12-08 18:22:13.6640,-0.787,0.529,-0.007,0.74,0.54,-1.75
2022-12-08 18:22:13.6740,-0.692,0.514,-0.081,-0.13,0.62,-0.85
2022-12-08 18:22:13.6840,-0.606,0.491,-0.144,-1.03,0.8,-0.14
2022-12-08 18:22:13.6940,-0.537,0.462,-0.196,-1.84,1.08,0.48
2022-12-08 18:22:13.7040,-0.493,0.427,-0.227,-2.48,1.41,0.96
2022-12-08 18:22:13.7140,-0.475,0.4,-0.236,-2.86,1.81,1.23
2022-12-08 18:22:13.7240,-0.478,0.382,-0.225,-2.98,2.15,1.28
2022-12-08 18:22:13.7340,-0.49,0.371,-0.199,-2.71,2.56,0.85
2022-12-08 18:22:13.7470,-0.499,0.365,-0.169,-2.71,2.56,0.85
2022-12-08 18:22:13.7540,-0.509,0.354,-0.138,-2.56,2.69,0.51
2022-12-08 18:22:13.7640,-0.518,0.348,-0.102,-2.4,2.87,0.18
2022-12-08 18:22:13.7740,-0.534,0.351,-0.067,-2.25,2.99,-0.2
2022-12-08 18:22:13.7840,-0.554,0.358,-0.038,-2.04,3.02,-0.56
2022-12-08 18:22:13.7940,-0.576,0.37,-0.015,-1.78,3.02,-0.86
2022-12-08 18:22:13.8040,-0.597,0.392,0.003,-1.51,2.97,-1.09
2022-12-08 18:22:13.8150,-0.617,0.422,0.017,-1.24,2.82,-1.26
2022-12-08 18:22:13.8250,-0.637,0.449,0.022,-0.98,2.59,-1.39
2022-12-08 18:22:13.8340,-0.66,0.468,0.013,-0.71,2.4,-1.42
2022-12-08 18:22:13.8450,-0.688,0.475,-0.006,-0.42,2.29,-1.31
2022-12-08 18:22:13.8550,-0.731,0.474,-0.023,-0.06,2.3,-1.11
2022-12-08 18:22:13.8650,-0.789,0.477,-0.035,0.44,2.39,-0.92
2022-12-08 18:22:13.8750,-0.86,0.501,-0.039,1.09,2.44,-0.77
2022-12-08 18:22:13.8850,-0.936,0.543,-0.031,1.86,2.28,-0.71
2022-12-08 18:22:13.8950,-1.002,0.595,-0.017,2.67,1.94,-0.76
2022-12-08 18:22:13.9050,-1.05,0.657,-0.007,3.37,1.48,-0.85
2022-12-08 18:22:13.9150,-1.078,0.73,-0.007,3.88,0.92,-0.91
2022-12-08 18:22:13.9250,-1.092,0.796,-0.027,4.2,0.23,-0.86
2022-12-08 18:22:13.9350,-1.062,0.826,-0.065,4.36,-0.38,-0.59
2022-12-08 18:22:13.9450,-1.012,0.824,-0.123,4.09,-0.65,-0.14
2022-12-08 18:22:13.9550,-1.007,0.821,-0.191,3.62,-0.61,0.51
2022-12-08 18:22:13.9650,-1.072,0.86,-0.25,3.6,-0.54,1.27
2022-12-08 18:22:13.9750,-1.101,0.887,-0.288,4.27,-0.89,1.94
2022-12-08 18:22:13.9850,-1.044,0.843,-0.319,4.58,-1.13,2.39
2022-12-08 18:22:13.9950,-0.973,0.795,-0.356,4.04,-0.67,2.76
2022-12-08 18:22:14.0050,-0.929,0.777,-0.393,3.38,-0.18,3.16
2022-12-08 18:22:14.0150,-0.889,0.75,-0.41,2.98,0.03,3.55
2022-12-08 18:22:14.0250,-0.886,0.719,-0.394,2.63,0.33,3.71
2022-12-08 18:22:14.0350,-0.944,0.719,-0.344,2.66,0.68,3.53
2022-12-08 18:22:14.0450,-1.038,0.734,-0.275,3.29,0.73,2.98
2022-12-08 18:22:14.0550,-1.137,0.756,-0.212,4.28,0.62,2.25
2022-12-08 18:22:14.0650,-1.24,0.777,-0.162,5.31,0.45,1.58
2022-12-08 18:22:14.0750,-1.325,0.784,-0.117,6.36,0.27,1.03
2022-12-08 18:22:14.0850,-1.376,0.781,-0.084,7.21,0.2,0.55
2022-12-08 18:22:14.0950,-1.4,0.772,-0.072,7.7,0.23,0.22
2022-12-08 18:22:14.1050,-1.392,0.772,-0.091,7.89,0.29,0.11
2022-12-08 18:22:14.1150,-1.361,0.777,-0.13,7.75,0.24,0.32
2022-12-08 18:22:14.1250,-1.315,0.791,-0.177,7.35,0.13,0.75
2022-12-08 18:22:14.1350,-1.269,0.813,-0.225,6.79,-0.1,1.27
2022-12-08 18:22:14.1450,-1.212,0.823,-0.276,6.21,-0.41,1.8
2022-12-08 18:22:14.1550,-1.132,0.813,-0.316,5.51,-0.63,2.34
2022-12-08 18:22:14.1650,-1.031,0.78,-0.345,4.59,-0.65,2.75
2022-12-08 18:22:14.1750,-0.921,0.736,-0.368,3.46,-0.46,3.05
2022-12-08 18:22:14.1850,-0.824,0.682,-0.38,2.23,-0.16,3.26
2022-12-08 18:22:14.1960,-0.744,0.628,-0.385,1.15,0.23,3.34
2022-12-08 18:22:14.2050,-0.7,0.586,-0.375,0.23,0.62,3.31
2022-12-08 18:22:14.2160,-0.689,0.559,-0.349,-0.33,0.9,3.13
2022-12-08 18:22:14.2260,-0.68,0.537,-0.304,-0.56,1.02,2.77
2022-12-08 18:22:14.2360,-0.662,0.516,-0.256,-0.77,1.08,2.21
2022-12-08 18:22:14.2460,-0.645,0.499,-0.211,-1.07,1.12,1.62
2022-12-08 18:22:14.2560,-0.629,0.491,-0.162,-1.37,1.12,1.06
2022-12-08 18:22:14.2660,-0.617,0.496,-0.111,-1.64,1.01,0.47
2022-12-08 18:22:14.2760,-0.602,0.51,-0.063,-1.89,0.75,-0.13
2022-12-08 18:22:14.2860,-0.576,0.522,-0.023,-2.18,0.4,-0.68
2022-12-08 18:22:14.2960,-0.551,0.534,0.009,-2.56,0.08,-1.13
2022-12-08 18:22:14.3060,-0.53,0.555,0.03,-2.94,-0.27,-1.48
2022-12-08 18:22:14.3160,-0.512,0.574,0.042,-3.27,-0.71,-1.71
2022-12-08 18:22:14.3260,-0.503,0.597,0.047,-3.58,-1.12,-1.83
2022-12-08 18:22:14.3360,-0.507,0.622,0.043,-3.78,-1.57,-1.87
2022-12-08 18:22:14.3460,-0.526,0.653,0.036,-3.76,-2.55,-1.71
2022-12-08 18:22:14.3580,-0.541,0.687,0.028,-3.76,-2.55,-1.71
2022-12-08 18:22:14.3660,-0.543,0.71,0.026,-3.7,-3.08,-1.6
2022-12-08 18:22:14.3760,-0.547,0.731,0.024,-3.76,-3.5,-1.54
2022-12-08 18:22:14.3860,-0.556,0.755,0.02,-3.8,-3.88,-1.48
2022-12-08 18:22:14.3960,-0.563,0.787,0.016,-3.78,-4.29,-1.41
2022-12-08 18:22:14.4060,-0.571,0.82,0.011,-3.76,-4.76,-1.35
2022-12-08 18:22:14.4160,-0.568,0.847,0.001,-3.73,-5.23,-1.27
2022-12-08 18:22:14.4260,-0.551,0.865,-0.011,-3.8,-5.63,-1.15
2022-12-08 18:22:14.4360,-0.528,0.874,-0.027,-4.0,-5.92,-1.02
2022-12-08 18:22:14.4480,-0.494,0.872,-0.047,-4.26,-6.1,-0.85
2022-12-08 18:22:14.4560,-0.459,0.861,-0.07,-4.61,-6.15,-0.64
2022-12-08 18:22:14.4660,-0.442,0.855,-0.094,-4.96,-6.09,-0.4
2022-12-08 18:22:14.4760,-0.445,0.88,-0.122,-5.13,-6.05,-0.15
2022-12-08 18:22:14.4860,-0.486,0.931,-0.116,-5.1,-6.29,0.13
2022-12-08 18:22:14.4960,-0.491,0.961,-0.101,-4.7,-6.75,0.08
2022-12-08 18:22:14.5060,-0.465,0.945,-0.092,-4.62,-6.97,-0.06
2022-12-08 18:22:14.5160,-0.45,0.925,-0.092,-4.85,-6.7,-0.14
2022-12-08 18:22:14.5260,-0.463,0.914,-0.109,-4.96,-6.37,-0.12
2022-12-08 18:22:14.5360,-0.514,0.884,-0.143,-4.78,-6.07,0.07
2022-12-08 18:22:14.5460,-0.609,0.866,-0.184,-4.21,-5.55,0.43
2022-12-08 18:22:14.5560,-0.729,0.865,-0.213,-3.19,-5.11,0.87
2022-12-08 18:22:14.5660,-0.867,0.867,-0.23,-1.91,-4.82,1.21
2022-12-08 18:22:14.5760,-1.02,0.889,-0.232,-0.44,-4.57,1.42
2022-12-08 18:22:14.5860,-1.182,0.918,-0.218,1.17,-4.52,1.47
2022-12-08 18:22:14.5970,-1.321,0.945,-0.181,2.89,-4.54,1.36
2022-12-08 18:22:14.6060,-1.402,0.948,-0.119,4.37,-4.58,1.0
2022-12-08 18:22:14.6170,-1.414,0.906,-0.034,5.28,-4.41,0.4
2022-12-08 18:22:14.6260,-1.381,0.841,0.055,5.5,-3.82,-0.45
2022-12-08 18:22:14.6360,-1.318,0.772,0.133,5.28,-3.04,-1.32
2022-12-08 18:22:14.6470,-1.242,0.707,0.184,4.74,-2.23,-2.09
2022-12-08 18:22:14.6570,-1.165,0.662,0.196,4.05,-1.5,-2.57
2022-12-08 18:22:14.6670,-1.088,0.644,0.163,3.35,-0.97,-2.66
2022-12-08 18:22:14.6770,-1.011,0.641,0.089,2.63,-0.74,-2.32
2022-12-08 18:22:14.6870,-0.919,0.631,0.001,1.91,-0.66,-1.56
2022-12-08 18:22:14.6970,-0.807,0.622,-0.087,1.03,-0.53,-0.67
2022-12-08 18:22:14.7070,-0.699,0.61,-0.167,-0.04,-0.4,0.22
2022-12-08 18:22:14.7170,-0.599,0.581,-0.24,-1.09,-0.25,1.02
2022-12-08 18:22:14.7270,-0.516,0.541,-0.302,-2.03,0.07,1.75
2022-12-08 18:22:14.7370,-0.461,0.502,-0.345,-2.81,0.52,2.34
2022-12-08 18:22:14.7470,-0.439,0.468,-0.368,-3.3,0.97,2.73
2022-12-08 18:22:14.7570,-0.438,0.434,-0.369,-3.45,1.37,2.92
2022-12-08 18:22:14.7670,-0.448,0.399,-0.34,-3.4,1.78,2.87
2022-12-08 18:22:14.7770,-0.454,0.361,-0.29,-3.23,2.21,2.53
2022-12-08 18:22:14.7870,-0.451,0.328,-0.228,-3.1,2.66,1.98
2022-12-08 18:22:14.7970,-0.454,0.305,-0.167,-3.05,3.07,1.31
2022-12-08 18:22:14.8070,-0.474,0.299,-0.116,-2.95,3.38,0.65
2022-12-08 18:22:14.8170,-0.503,0.301,-0.078,-2.68,3.51,0.1
2022-12-08 18:22:14.8270,-0.543,0.309,-0.046,-2.31,3.57,-0.33
2022-12-08 18:22:14.8370,-0.6,0.343,-0.018,-1.84,3.56,-0.7
2022-12-08 18:22:14.8470,-0.663,0.385,-0.001,-1.21,3.31,-1.02
2022-12-08 18:22:14.8570,-0.711,0.408,0.007,-0.52,2.97,-1.23
2022-12-08 18:22:14.8670,-0.732,0.405,0.015,0.04,2.81,-1.36
2022-12-08 18:22:14.8770,-0.741,0.398,0.021,0.32,2.91,-1.49
2022-12-08 18:22:14.8870,-0.746,0.402,0.021,0.48,3.04,-1.6
2022-12-08 18:22:14.8970,-0.754,0.412,0.016,0.61,3.07,-1.63
2022-12-08 18:22:14.9070,-0.771,0.435,0.018,0.75,3.02,-1.62
2022-12-08 18:22:14.9170,-0.799,0.476,0.03,0.99,2.86,-1.67
2022-12-08 18:22:14.9270,-0.839,0.534,0.042,1.33,2.51,-1.79
2022-12-08 18:22:14.9370,-0.888,0.598,0.048,1.78,2.0,-1.92
2022-12-08 18:22:14.9470,-0.949,0.667,0.043,2.31,1.42,-1.96
2022-12-08 18:22:14.9570,-1.018,0.742,0.025,2.97,0.8,-1.87
2022-12-08 18:22:14.9670,-1.075,0.811,-0.009,3.7,0.12,-1.63
2022-12-08 18:22:14.9770,-1.106,0.851,-0.061,4.29,-0.51,-1.21
2022-12-08 18:22:14.9870,-1.147,0.879,-0.122,4.64,-0.85,-0.62
2022-12-08 18:22:14.9970,-1.209,0.927,-0.192,5.09,-1.07,0.09
2022-12-08 18:22:15.0070,-1.225,0.949,-0.267,5.74,-1.48,0.9
2022-12-08 18:22:15.0180,-1.171,0.91,-0.347,5.94,-1.66,1.76
2022-12-08 18:22:15.0280,-1.094,0.848,-0.429,5.44,-1.23,2.65
2022-12-08 18:22:15.0370,-1.036,0.803,-0.508,4.72,-0.59,3.55
2022-12-08 18:22:15.0480,-0.996,0.752,-0.569,4.2,-0.11,4.4
2022-12-08 18:22:15.0580,-0.989,0.702,-0.596,3.86,0.43,5.02
2022-12-08 18:22:15.0680,-1.041,0.684,-0.566,3.84,0.96,5.26
2022-12-08 18:22:15.0780,-1.123,0.703,-0.473,4.41,1.17,4.91
2022-12-08 18:22:15.0880,-1.188,0.729,-0.349,5.25,1.01,3.91
2022-12-08 18:22:15.0980,-1.237,0.743,-0.239,5.91,0.76,2.59
2022-12-08 18:22:15.1080,-1.258,0.749,-0.147,6.41,0.61,1.4
2022-12-08 18:22:15.1180,-1.257,0.747,-0.075,6.59,0.53,0.41
2022-12-08 18:22:15.1280,-1.247,0.749,-0.027,6.54,0.51,-0.37
2022-12-08 18:22:15.1380,-1.228,0.768,-0.015,6.37,0.44,-0.88
2022-12-08 18:22:15.1480,-1.187,0.797,-0.047,6.09,0.18,-1.01
2022-12-08 18:22:15.1580,-1.127,0.812,-0.114,5.58,-0.2,-0.68
2022-12-08 18:22:15.1680,-1.07,0.828,-0.184,4.86,-0.44,0.0
2022-12-08 18:22:15.1780,-1.003,0.848,-0.248,4.17,-0.7,0.72
2022-12-08 18:22:15.1880,-0.907,0.838,-0.29,3.37,-1.02,1.38
2022-12-08 18:22:15.1980,-0.805,0.803,-0.315,2.29,-1.04,1.82
2022-12-08 18:22:15.2080,-0.726,0.771,-0.327,1.16,-0.82,2.07
2022-12-08 18:22:15.2180,-0.663,0.741,-0.327,0.27,-0.62,2.18
2022-12-08 18:22:15.2280,-0.613,0.703,-0.317,-0.45,-0.43,2.14
2022-12-08 18:22:15.2380,-0.576,0.664,-0.293,-1.04,-0.17,1.99
2022-12-08 18:22:15.2480,-0.548,0.629,-0.253,-1.49,0.11,1.68
2022-12-08 18:22:15.2580,-0.52,0.593,-0.208,-1.85,0.36,1.2
2022-12-08 18:22:15.2680,-0.495,0.559,-0.167,-2.19,0.6,0.66
2022-12-08 18:22:15.2780,-0.469,0.541,-0.12,-2.51,0.83,0.15
2022-12-08 18:22:15.2880,-0.44,0.535,-0.068,-2.83,0.9,-0.42
2022-12-08 18:22:15.2980,-0.418,0.532,-0.024,-3.19,0.84,-1.04
2022-12-08 18:22:15.3080,-0.399,0.522,0.01,-3.47,0.76,-1.56
2022-12-08 18:22:15.3180,-0.381,0.506,0.036,-3.72,0.74,-1.98
2022-12-08 18:22:15.3280,-0.372,0.492,0.061,-3.97,0.79,-2.3
2022-12-08 18:22:15.3380,-0.373,0.495,0.081,-4.13,0.81,-2.59
2022-12-08 18:22:15.3480,-0.388,0.514,0.087,-4.19,0.67,-2.81
2022-12-08 18:22:15.3580,-0.403,0.538,0.084,-4.12,0.38,-2.87
2022-12-08 18:22:15.3680,-0.404,0.571,0.081,-4.05,0.03,-2.83
2022-12-08 18:22:15.3780,-0.415,0.618,0.069,-4.12,-0.4,-2.77
2022-12-08 18:22:15.3880,-0.431,0.665,0.049,-4.08,-0.96,-2.62
2022-12-08 18:22:15.3980,-0.443,0.693,0.022,-4.0,-1.52,-2.38
2022-12-08 18:22:15.4080,-0.467,0.717,-0.016,-3.93,-1.86,-2.07
2022-12-08 18:22:15.4180,-0.508,0.752,-0.059,-3.75,-2.17,-1.64
2022-12-08 18:22:15.4280,-0.548,0.796,-0.092,-3.4,-2.58,-1.16
2022-12-08 18:22:15.4380,-0.573,0.852,-0.114,-3.05,-3.07,-0.77
2022-12-08 18:22:15.4490,-0.584,0.905,-0.132,-2.84,-3.66,-0.49
2022-12-08 18:22:15.4590,-0.579,0.943,-0.153,-2.77,-4.23,-0.25
2022-12-08 18:22:15.4690,-0.563,0.967,-0.175,-2.86,-4.64,0.01
2022-12-08 18:22:15.4790,-0.553,0.978,-0.19,-3.03,-4.9,0.27
2022-12-08 18:22:15.4890,-0.545,0.982,-0.202,-3.14,-5.01,0.47
2022-12-08 18:22:15.4990,-0.542,0.986,-0.214,-3.22,-5.04,0.65
2022-12-08 18:22:15.5090,-0.579,1.015,-0.218,-3.24,-5.05,0.81
2022-12-08 18:22:15.5190,-0.657,1.085,-0.2,-2.86,-5.28,0.9
2022-12-08 18:22:15.5290,-0.694,1.142,-0.168,-2.07,-5.92,0.78
2022-12-08 18:22:15.5390,-0.649,1.126,-0.146,-1.67,-6.4,0.51
2022-12-08 18:22:15.5490,-0.596,1.074,-0.153,-2.06,-6.14,0.35
2022-12-08 18:22:15.5590,-0.604,1.038,-0.182,-2.51,-5.5,0.46
2022-12-08 18:22:15.5690,-0.641,0.98,-0.23,-2.34,-4.99,0.81
2022-12-08 18:22:15.5790,-0.679,0.909,-0.276,-1.86,-4.23,1.33
2022-12-08 18:22:15.5890,-0.742,0.842,-0.317,-1.36,-3.33,1.83
2022-12-08 18:22:15.5990,-0.839,0.782,-0.346,-0.59,-2.46,2.26
2022-12-08 18:22:15.6090,-0.955,0.724,-0.353,0.52,-1.66,2.56
2022-12-08 18:22:15.6190,-1.063,0.669,-0.32,1.82,-0.89,2.59
2022-12-08 18:22:15.6290,-1.153,0.633,-0.242,3.03,-0.18,2.2
2022-12-08 18:22:15.6390,-1.212,0.613,-0.121,4.05,0.3,1.34
2022-12-08 18:22:15.6490,-1.229,0.592,0.015,4.73,0.6,0.05
2022-12-08 18:22:15.6590,-1.178,0.567,0.127,4.96,0.85,-1.39
2022-12-08 18:22:15.6690,-1.086,0.544,0.197,4.49,1.11,-2.57
2022-12-08 18:22:15.6790,-1.023,0.558,0.228,3.59,1.32,-3.32
2022-12-08 18:22:15.6890,-1.001,0.619,0.224,2.96,1.16,-3.67
2022-12-08 18:22:15.6990,-0.988,0.689,0.183,2.7,0.52,-3.66
2022-12-08 18:22:15.7090,-0.94,0.728,0.119,2.54,-0.22,-3.27
2022-12-08 18:22:15.7190,-0.854,0.742,0.064,2.02,-0.65,-2.65
2022-12-08 18:22:15.7290,-0.758,0.745,0.019,1.11,-0.85,-2.1
2022-12-08 18:22:15.7390,-0.649,0.716,-0.024,0.13,-0.93,-1.65
2022-12-08 18:22:15.7490,-0.531,0.649,-0.075,-0.98,-0.69,-1.23
2022-12-08 18:22:15.7590,-0.455,0.569,-0.124,-2.17,-0.07,-0.73
2022-12-08 18:22:15.7690,-0.436,0.498,-0.16,-2.92,0.7,-0.27
2022-12-08 18:22:15.7790,-0.466,0.448,-0.17,-3.11,1.39,0.05
2022-12-08 18:22:15.7890,-0.524,0.416,-0.144,-2.8,1.89,0.1
2022-12-08 18:22:15.7990,-0.572,0.392,-0.096,-2.22,2.21,-0.2
2022-12-08 18:22:15.8090,-0.592,0.365,-0.039,-1.73,2.45,-0.74
2022-12-08 18:22:15.8190,-0.589,0.344,0.021,-1.52,2.7,-1.36
2022-12-08 18:22:15.8290,-0.566,0.335,0.084,-1.55,2.89,-2.03
2022-12-08 18:22:15.8390,-0.538,0.335,0.137,-1.78,2.97,-2.7
2022-12-08 18:22:15.8500,-0.509,0.346,0.171,-2.06,2.94,-3.27
2022-12-08 18:22:15.8600,-0.482,0.361,0.18,-2.34,2.82,-3.64
2022-12-08 18:22:15.8690,-0.459,0.386,0.157,-2.62,2.66,-3.73
2022-12-08 18:22:15.8800,-0.449,0.421,0.106,-2.85,2.41,-3.5
2022-12-08 18:22:15.8900,-0.452,0.456,0.05,-2.96,2.07,-2.98
2022-12-08 18:22:15.9000,-0.469,0.496,0.005,-2.92,1.72,-2.4
2022-12-08 18:22:15.9100,-0.486,0.53,-0.043,-2.76,1.35,-1.91
2022-12-08 18:22:15.9200,-0.516,0.549,-0.077,-2.58,1.04,-1.39
2022-12-08 18:22:15.9300,-0.554,0.566,-0.101,-2.27,0.89,-1.01
2022-12-08 18:22:15.9400,-0.604,0.579,-0.111,-1.86,0.78,-0.72
2022-12-08 18:22:15.9500,-0.664,0.594,-0.109,-1.34,0.7,-0.57
2022-12-08 18:22:15.9600,-0.722,0.62,-0.101,-0.71,0.61,-0.55
2022-12-08 18:22:15.9700,-0.778,0.646,-0.094,-0.09,0.42,-0.57
2022-12-08 18:22:15.9800,-0.834,0.672,-0.093,0.51,0.24,-0.6
2022-12-08 18:22:15.9900,-0.886,0.701,-0.097,1.12,0.04,-0.57
2022-12-08 18:22:16.0000,-0.917,0.725,-0.105,1.68,-0.17,-0.49
2022-12-08 18:22:16.0100,-0.939,0.736,-0.115,2.04,-0.34,-0.37
2022-12-08 18:22:16.0200,-0.956,0.747,-0.126,2.31,-0.38,-0.23
2022-12-08 18:22:16.0300,-0.972,0.755,-0.141,2.54,-0.42,-0.07
2022-12-08 18:22:16.0400,-0.991,0.759,-0.16,2.75,-0.44,0.12
2022-12-08 18:22:16.0500,-1.041,0.783,-0.172,2.99,-0.41,0.35
2022-12-08 18:22:16.0600,-1.087,0.826,-0.179,3.54,-0.59,0.52
2022-12-08 18:22:16.0700,-1.08,0.838,-0.19,4.03,-0.96,0.63
2022-12-08 18:22:16.0800,-1.039,0.813,-0.218,4.01,-1.02,0.79
2022-12-08 18:22:16.0900,-1.011,0.803,-0.256,3.66,-0.73,1.1
2022-12-08 18:22:16.1000,-0.998,0.797,-0.291,3.43,-0.58,1.5
2022-12-08 18:22:16.1100,-1.001,0.764,-0.31,3.36,-0.47,1.87
2022-12-08 18:22:16.1200,-1.041,0.732,-0.303,3.45,-0.1,2.06
2022-12-08 18:22:16.1300,-1.12,0.727,-0.268,3.9,0.27,1.98
2022-12-08 18:22:16.1400,-1.217,0.733,-0.218,4.73,0.36,1.62
2022-12-08 18:22:16.1500,-1.302,0.746,-0.17,6.58,0.22,0.63
2022-12-08 18:22:16.1620,-1.37,0.77,-0.125,6.58,0.22,0.63
2022-12-08 18:22:16.1700,-1.4,0.783,-0.09,7.24,-0.02,0.18
2022-12-08 18:22:16.1800,-1.385,0.798,-0.074,7.5,-0.18,-0.15
2022-12-08 18:22:16.1900,-1.333,0.823,-0.087,7.3,-0.37,-0.27
2022-12-08 18:22:16.2000,-1.265,0.852,-0.13,6.71,-0.67,-0.09
2022-12-08 18:22:16.2100,-1.187,0.872,-0.191,5.94,-1.04,0.38
2022-12-08 18:22:16.2210,-1.101,0.87,-0.261,5.07,-1.32,1.04
2022-12-08 18:22:16.2310,-1.014,0.851,-0.321,4.12,-1.39,1.78
2022-12-08 18:22:16.2410,-0.928,0.817,-0.368,3.16,-1.3,2.42
2022-12-08 18:22:16.2510,-0.846,0.775,-0.397,2.21,-1.06,2.9
2022-12-08 18:22:16.2610,-0.773,0.72,-0.412,1.32,-0.75,3.18
2022-12-08 18:22:16.2710,-0.713,0.658,-0.412,0.52,-0.29,3.31
2022-12-08 18:22:16.2810,-0.666,0.598,-0.391,-0.14,0.23,3.27
2022-12-08 18:22:16.2910,-0.629,0.545,-0.346,-0.67,0.73,3.0
2022-12-08 18:22:16.3010,-0.596,0.495,-0.287,-1.11,1.17,2.47
2022-12-08 18:22:16.3110,-0.568,0.45,-0.233,-1.5,1.57,1.8
2022-12-08 18:22:16.3210,-0.556,0.431,-0.185,-1.84,1.91,1.17
2022-12-08 18:22:16.3310,-0.554,0.425,-0.138,-2.03,2.01,0.6
2022-12-08 18:22:16.3410,-0.559,0.43,-0.09,-2.12,1.96,0.05
2022-12-08 18:22:16.3510,-0.561,0.435,-0.043,-2.14,1.8,-0.51
2022-12-08 18:22:16.3610,-0.57,0.444,0.005,-2.2,1.63,-1.05
2022-12-08 18:22:16.3710,-0.577,0.46,0.056,-2.19,1.42,-1.6
2022-12-08 18:22:16.3810,-0.577,0.476,0.103,-2.21,1.12,-2.15
2022-12-08 18:22:16.3910,-0.583,0.497,0.144,-2.3,0.83,-2.65
2022-12-08 18:22:16.4010,-0.596,0.525,0.17,-2.33,0.49,-3.06
2022-12-08 18:22:16.4110,-0.606,0.565,0.178,-2.3,0.08,-3.3
2022-12-08 18:22:16.4210,-0.602,0.6,0.154,-2.29,-0.45,-3.35
2022-12-08 18:22:16.4310,-0.584,0.615,0.106,-2.42,-0.93,-3.07
2022-12-08 18:22:16.4410,-0.563,0.632,0.055,-2.68,-1.21,-2.55
2022-12-08 18:22:16.4510,-0.548,0.657,0.014,-2.97,-1.5,-1.99
2022-12-08 18:22:16.4610,-0.523,0.676,-0.022,-3.2,-1.87,-1.53
2022-12-08 18:22:16.4710,-0.501,0.692,-0.05,-3.5,-2.17,-1.13
2022-12-08 18:22:16.4810,-0.49,0.708,-0.076,-3.78,-2.43,-0.8
2022-12-08 18:22:16.4910,-0.496,0.729,-0.095,-3.94,-2.67,-0.51
2022-12-08 18:22:16.5010,-0.529,0.762,-0.104,-3.92,-2.95,-0.28
2022-12-08 18:22:16.5110,-0.575,0.796,-0.103,-3.63,-3.33,-0.16
2022-12-08 18:22:16.5210,-0.621,0.816,-0.094,-3.2,-3.71,-0.14
2022-12-08 18:22:16.5310,-0.662,0.831,-0.077,-2.77,-3.94,-0.2
2022-12-08 18:22:16.5410,-0.688,0.851,-0.052,-2.38,-4.11,-0.34
2022-12-08 18:22:16.5520,-0.693,0.859,-0.033,-2.13,-4.32,-0.54
2022-12-08 18:22:16.5610,-0.693,0.866,-0.023,-2.09,-4.4,-0.7
2022-12-08 18:22:16.5710,-0.734,0.914,-0.009,-2.1,-4.47,-0.76
2022-12-08 18:22:16.5810,-0.771,0.988,0.008,-1.69,-4.93,-0.86
2022-12-08 18:22:16.5910,-0.723,0.994,0.013,-1.32,-5.63,-0.99
2022-12-08 18:22:16.6010,-0.635,0.923,-0.01,-1.77,-5.65,-0.99
2022-12-08 18:22:16.6110,-0.604,0.88,-0.054,-2.61,-4.88,-0.73
2022-12-08 18:22:16.6210,-0.628,0.855,-0.1,-2.88,-4.36,-0.26
2022-12-08 18:22:16.6310,-0.655,0.79,-0.148,-2.59,-4.0,0.23
2022-12-08 18:22:16.6410,-0.673,0.72,-0.178,-2.26,-3.24,0.74
2022-12-08 18:22:16.6510,-0.725,0.687,-0.195,-2.01,-2.41,1.07
2022-12-08 18:22:16.6620,-0.797,0.679,-0.204,-1.43,-1.95,1.26
2022-12-08 18:22:16.6720,-0.861,0.679,-0.2,-0.65,-1.74,1.36
2022-12-08 18:22:16.6820,-0.913,0.69,-0.185,0.05,-1.63,1.33
2022-12-08 18:22:16.6920,-0.947,0.713,-0.155,0.63,-1.62,1.19
2022-12-08 18:22:16.7020,-0.972,0.74,-0.108,1.02,-1.75,0.9
2022-12-08 18:22:16.7120,-0.985,0.769,-0.061,1.31,-1.94,0.45
2022-12-08 18:22:16.7220,-0.991,0.793,-0.018,1.48,-2.15,0.0
2022-12-08 18:22:16.7320,-0.972,0.797,0.011,1.58,-2.34,-0.4
2022-12-08 18:22:16.7420,-0.929,0.786,0.022,1.43,-2.33,-0.66
2022-12-08 18:22:16.7520,-0.878,0.786,0.007,1.03,-2.18,-0.73
2022-12-08 18:22:16.7620,-0.824,0.786,-0.033,0.56,-2.14,-0.56
2022-12-08 18:22:16.7720,-0.758,0.771,-0.093,0.05,-2.1,-0.14
2022-12-08 18:22:16.7820,-0.684,0.751,-0.156,-0.58,-1.92,0.47
2022-12-08 18:22:16.7920,-0.607,0.721,-0.214,-1.28,-1.69,1.1
2022-12-08 18:22:16.8020,-0.534,0.673,-0.268,-2.0,-1.34,1.68
2022-12-08 18:22:16.8120,-0.491,0.629,-0.303,-2.66,-0.81,2.2
2022-12-08 18:22:16.8220,-0.477,0.589,-0.315,-3.03,-0.31,2.53
2022-12-08 18:22:16.8320,-0.483,0.55,-0.296,-3.11,0.18,2.61
2022-12-08 18:22:16.8420,-0.49,0.514,-0.255,-2.96,0.66,2.39
2022-12-08 18:22:16.8520,-0.503,0.48,-0.208,-2.82,1.11,1.94
2022-12-08 18:22:16.8620,-0.523,0.456,-0.156,-2.6,1.55,1.43
2022-12-08 18:22:16.8720,-0.536,0.438,-0.101,-2.31,1.89,0.86
2022-12-08 18:22:16.8820,-0.547,0.421,-0.051,-2.08,2.17,0.26
2022-12-08 18:22:16.8920,-0.567,0.411,-0.009,-1.87,2.45,-0.28
2022-12-08 18:22:16.9020,-0.593,0.406,0.022,-1.57,2.65,-0.73
2022-12-08 18:22:16.9120,-0.617,0.398,0.042,-1.21,2.81,-1.08
2022-12-08 18:22:16.9220,-0.645,0.4,0.053,-0.87,2.99,-1.31
2022-12-08 18:22:16.9320,-0.671,0.404,0.056,-0.48,3.08,-1.44
2022-12-08 18:22:16.9420,-0.698,0.401,0.053,-0.12,3.14,-1.49
2022-12-08 18:22:16.9520,-0.728,0.401,0.043,0.25,3.27,-1.47
2022-12-08 18:22:16.9620,-0.757,0.404,0.027,0.65,3.36,-1.38
2022-12-08 18:22:16.9720,-0.786,0.414,0.008,1.04,3.42,-1.22
2022-12-08 18:22:16.9820,-0.814,0.433,-0.013,1.42,3.4,-1.03
2022-12-08 18:22:16.9920,-0.839,0.449,-0.028,1.78,3.29,-0.82
2022-12-08 18:22:17.0020,-0.87,0.47,-0.039,2.12,3.21,-0.66
2022-12-08 18:22:17.0120,-0.908,0.494,-0.04,2.51,3.08,-0.55
2022-12-08 18:22:17.0220,-0.95,0.524,-0.036,2.95,2.89,-0.52
2022-12-08 18:22:17.0320,-1.0,0.562,-0.034,3.44,2.66,-0.55
2022-12-08 18:22:17.0420,-1.062,0.61,-0.031,3.99,2.33,-0.56
2022-12-08 18:22:17.0520,-1.124,0.664,-0.037,4.64,1.9,-0.56
2022-12-08 18:22:17.0630,-1.161,0.709,-0.052,5.29,1.4,-0.47
2022-12-08 18:22:17.0730,-1.171,0.736,-0.078,5.68,0.98,-0.28
2022-12-08 18:22:17.0830,-1.159,0.751,-0.123,5.77,0.72,0.03
2022-12-08 18:22:17.0930,-1.16,0.77,-0.181,5.65,0.57,0.52
2022-12-08 18:22:17.1030,-1.207,0.831,-0.23,5.65,0.38,1.16
2022-12-08 18:22:17.1130,-1.229,0.909,-0.263,6.08,-0.24,1.69
2022-12-08 18:22:17.1230,-1.154,0.93,-0.292,6.24,-1.03,2.07
2022-12-08 18:22:17.1330,-1.043,0.911,-0.328,5.46,-1.27,2.39
2022-12-08 18:22:17.1430,-0.963,0.899,-0.365,4.32,-1.12,2.77
2022-12-08 18:22:17.1530,-0.9,0.868,-0.386,3.5,-1.03,3.13
2022-12-08 18:22:17.1630,-0.862,0.805,-0.381,2.87,-0.74,3.31
2022-12-08 18:22:17.1730,-0.9,0.743,-0.351,2.49,-0.12,3.21
2022-12-08 18:22:17.1830,-1.001,0.73,-0.297,2.87,0.48,2.85
2022-12-08 18:22:17.1930,-1.109,0.734,-0.232,3.86,0.6,2.24
2022-12-08 18:22:17.2030,-1.197,0.746,-0.172,4.92,0.55,1.52
2022-12-08 18:22:17.2130,-1.25,0.762,-0.117,5.75,0.41,0.84
2022-12-08 18:22:17.2230,-1.256,0.774,-0.068,6.21,0.2,0.24
2022-12-08 18:22:17.2330,-1.224,0.797,-0.035,6.18,0.0,-0.29
2022-12-08 18:22:17.2430,-1.163,0.835,-0.036,5.76,-0.31,-0.65
2022-12-08 18:22:17.2530,-1.11,0.869,-0.081,5.04,-0.79,-0.64
2022-12-08 18:22:17.2630,-1.059,0.896,-0.143,4.38,-1.25,-0.18
2022-12-08 18:22:17.2730,-0.998,0.918,-0.198,3.73,-1.65,0.45
2022-12-08 18:22:17.2830,-0.925,0.921,-0.249,2.99,-2.0,1.02
2022-12-08 18:22:17.2930,-0.852,0.905,-0.291,2.13,-2.16,1.54
2022-12-08 18:22:17.3030,-0.782,0.877,-0.322,1.28,-2.13,1.97
2022-12-08 18:22:17.3130,-0.711,0.839,-0.34,0.47,-2.0,2.29
2022-12-08 18:22:17.3230,-0.648,0.788,-0.348,-0.34,-1.75,2.46
2022-12-08 18:22:17.3330,-0.591,0.736,-0.347,-1.06,-1.37,2.52
2022-12-08 18:22:17.3430,-0.542,0.685,-0.334,-1.72,-0.98,2.48
2022-12-08 18:22:17.3560,-0.511,0.644,-0.306,-2.28,-0.59,2.3
2022-12-08 18:22:17.3630,-0.49,0.617,-0.263,-2.66,-0.29,1.96
2022-12-08 18:22:17.3730,-0.468,0.598,-0.213,-2.94,-0.13,1.45
2022-12-08 18:22:17.3830,-0.442,0.581,-0.158,-3.22,-0.05,0.87
2022-12-08 18:22:17.3930,-0.412,0.567,-0.098,-3.54,0.01,0.23
2022-12-08 18:22:17.4030,-0.385,0.563,-0.036,-3.89,0.04,-0.46
2022-12-08 18:22:17.4130,-0.356,0.564,0.027,-4.21,-0.03,-1.18
2022-12-08 18:22:17.4230,-0.32,0.556,0.088,-4.55,-0.14,-1.89
2022-12-08 18:22:17.4330,-0.29,0.545,0.14,-4.95,-0.16,-2.57
2022-12-08 18:22:17.4430,-0.277,0.544,0.174,-5.29,-0.14,-3.13
2022-12-08 18:22:17.4530,-0.287,0.554,0.189,-5.46,-0.22,-3.49
2022-12-08 18:22:17.4640,-0.312,0.566,0.177,-5.41,-0.38,-3.65
2022-12-08 18:22:17.4740,-0.342,0.586,0.135,-5.2,-0.57,-3.51
2022-12-08 18:22:17.4840,-0.364,0.615,0.076,-4.95,-0.82,-3.05
2022-12-08 18:22:17.4940,-0.369,0.645,0.026,-4.78,-1.17,-2.43
2022-12-08 18:22:17.5040,-0.364,0.683,-0.01,-4.78,-1.52,-1.89
2022-12-08 18:22:17.5140,-0.358,0.723,-0.04,-4.86,-1.94,-1.47
2022-12-08 18:22:17.5240,-0.346,0.762,-0.083,-4.96,-2.37,-1.12
2022-12-08 18:22:17.5340,-0.343,0.812,-0.131,-5.11,-2.8,-0.63
2022-12-08 18:22:17.5440,-0.362,0.876,-0.178,-5.16,-3.31,-0.08
2022-12-08 18:22:17.5540,-0.394,0.938,-0.23,-4.99,-3.94,0.46
2022-12-08 18:22:17.5640,-0.422,0.982,-0.28,-4.69,-4.54,1.05
2022-12-08 18:22:17.5740,-0.461,1.015,-0.315,-4.41,-4.93,1.63
2022-12-08 18:22:17.5840,-0.506,1.054,-0.337,-4.0,-5.21,2.06
2022-12-08 18:22:17.5940,-0.544,1.086,-0.333,-3.53,-5.53,2.35
2022-12-08 18:22:17.6040,-0.574,1.108,-0.308,-3.13,-5.75,2.38
2022-12-08 18:22:17.6140,-0.631,1.154,-0.268,-2.77,-5.87,2.2
2022-12-08 18:22:17.6240,-0.724,1.236,-0.222,-2.15,-6.21,1.87
2022-12-08 18:22:17.6340,-0.782,1.279,-0.174,-1.16,-6.88,1.46
2022-12-08 18:22:17.6440,-0.797,1.263,-0.133,-0.5,-7.15,1.01
2022-12-08 18:22:17.6540,-0.823,1.229,-0.106,-0.24,-6.84,0.64
2022-12-08 18:22:17.6640,-0.874,1.184,-0.09,0.14,-6.32,0.38
2022-12-08 18:22:17.6740,-0.924,1.098,-0.076,0.78,-5.69,0.23
2022-12-08 18:22:17.6840,-0.95,0.973,-0.068,1.43,-4.65,0.09
2022-12-08 18:22:17.6940,-0.971,0.858,-0.081,1.83,-3.23,0.01
2022-12-08 18:22:17.7040,-1.01,0.802,-0.113,2.19,-1.94,0.11
2022-12-08 18:22:17.7140,-1.061,0.796,-0.146,2.72,-1.23,0.4
2022-12-08 18:22:17.7240,-1.113,0.803,-0.172,3.36,-1.03,0.68
2022-12-08 18:22:17.7340,-1.14,0.787,-0.17,4.0,-0.97,0.87
2022-12-08 18:22:17.7440,-1.144,0.755,-0.125,4.37,-0.71,0.77
2022-12-08 18:22:17.7540,-1.127,0.718,-0.047,4.51,-0.32,0.21
2022-12-08 18:22:17.7640,-1.088,0.67,0.024,4.42,0.11,-0.66
2022-12-08 18:22:17.7740,-1.039,0.628,0.057,4.11,0.61,-1.45
2022-12-08 18:22:17.7840,-0.976,0.583,0.048,3.66,1.04,-1.87
2022-12-08 18:22:17.7940,-0.927,0.549,0.012,3.07,1.5,-1.87
2022-12-08 18:22:17.8040,-0.9,0.546,-0.011,2.61,1.82,-1.59
2022-12-08 18:22:17.8140,-0.859,0.552,0.005,2.34,1.83,-1.46
2022-12-08 18:22:17.8240,-0.796,0.546,0.056,1.93,1.74,-1.73
2022-12-08 18:22:17.8340,-0.71,0.521,0.124,1.3,1.76,-2.34
2022-12-08 18:22:17.8440,-0.613,0.471,0.187,0.44,1.97,-3.11
2022-12-08 18:22:17.8540,-0.535,0.421,0.226,-0.53,2.42,-3.83
2022-12-08 18:22:17.8650,-0.51,0.394,0.227,-1.3,2.87,-4.3
2022-12-08 18:22:17.8740,-0.528,0.374,0.201,-1.55,3.12,-4.37
2022-12-08 18:22:17.8850,-0.56,0.33,0.175,-1.37,3.29,-4.17
2022-12-08 18:22:17.8950,-0.595,0.27,0.166,-1.06,3.72,-3.97
2022-12-08 18:22:17.9050,-0.63,0.247,0.174,-0.72,4.29,-3.92
2022-12-08 18:22:17.9150,-0.636,0.258,0.19,-0.38,4.5,-4.02
2022-12-08 18:22:17.9250,-0.633,0.267,0.2,-0.33,4.37,-4.2
2022-12-08 18:22:17.9350,-0.622,0.284,0.207,-0.39,4.25,-4.3
2022-12-08 18:22:17.9450,-0.606,0.308,0.223,-0.52,4.07,-4.36
2022-12-08 18:22:17.9550,-0.584,0.32,0.237,-0.7,3.82,-4.48
2022-12-08 18:22:17.9650,-0.575,0.32,0.236,-0.94,3.7,-4.57
2022-12-08 18:22:17.9750,-0.588,0.338,0.22,-1.05,3.71,-4.47
2022-12-08 18:22:17.9850,-0.618,0.379,0.166,-0.94,3.55,-4.19
2022-12-08 18:22:17.9950,-0.668,0.417,0.065,-0.67,3.17,-3.51
2022-12-08 18:22:18.0050,-0.724,0.453,-0.058,-0.22,2.81,-2.34
2022-12-08 18:22:18.0150,-0.762,0.495,-0.172,0.31,2.46,-0.94
2022-12-08 18:22:18.0250,-0.779,0.527,-0.262,0.63,2.06,0.38
2022-12-08 18:22:18.0350,-0.793,0.582,-0.327,0.75,1.72,1.47
2022-12-08 18:22:18.0450,-0.802,0.657,-0.382,0.83,1.16,2.32
2022-12-08 18:22:18.0550,-0.828,0.744,-0.445,0.85,0.37,3.06
2022-12-08 18:22:18.0650,-0.873,0.824,-0.501,1.04,-0.53,3.86
2022-12-08 18:22:18.0750,-0.926,0.872,-0.535,1.42,-1.37,4.57
2022-12-08 18:22:18.0850,-0.975,0.879,-0.506,1.88,-1.9,5.01
2022-12-08 18:22:18.0950,-1.009,0.848,-0.395,2.31,-2.03,4.79
2022-12-08 18:22:18.1050,-1.035,0.812,-0.24,2.59,-1.78,3.73
2022-12-08 18:22:18.1150,-1.018,0.792,-0.105,2.78,-1.49,2.23
2022-12-08 18:22:18.1250,-0.973,0.795,-0.056,2.55,-1.38,0.93
2022-12-08 18:22:18.1350,-0.968,0.845,-0.097,2.03,-1.5,0.45
2022-12-08 18:22:18.1450,-0.998,0.948,-0.191,1.89,-2.09,0.86
2022-12-08 18:22:18.1550,-0.957,1.027,-0.269,2.1,-3.2,1.75
2022-12-08 18:22:18.1650,-0.824,1.04,-0.312,1.62,-4.08,2.45
2022-12-08 18:22:18.1750,-0.688,1.035,-0.34,0.25,-4.3,2.78
2022-12-08 18:22:18.1850,-0.565,1.005,-0.38,-1.12,-4.32,2.93
2022-12-08 18:22:18.1950,-0.463,0.951,-0.407,-2.35,-4.05,3.19
2022-12-08 18:22:18.2050,-0.392,0.893,-0.42,-3.33,-3.51,3.33
2022-12-08 18:22:18.2150,-0.397,0.852,-0.426,-3.98,-2.89,3.33
2022-12-08 18:22:18.2250,-0.511,0.837,-0.422,-3.86,-2.41,3.3
2022-12-08 18:22:18.2350,-0.705,0.85,-0.402,-2.65,-2.16,3.2
2022-12-08 18:22:18.2450,-0.894,0.863,-0.352,-0.65,-2.17,2.95
2022-12-08 18:22:18.2560,-1.033,0.851,-0.27,1.29,-2.2,2.42
2022-12-08 18:22:18.2660,-1.134,0.853,-0.138,2.74,-1.99,1.58
2022-12-08 18:22:18.2750,-1.192,0.889,0.017,3.79,-1.96,0.25
2022-12-08 18:22:18.2860,-1.197,0.913,0.167,4.39,-2.27,-1.31
2022-12-08 18:22:18.2960,-1.153,0.902,0.301,4.47,-2.48,-2.8
2022-12-08 18:22:18.3060,-1.089,0.854,0.384,4.06,-2.35,-4.12
2022-12-08 18:22:18.3160,-1.045,0.805,0.386,3.46,-1.83,-4.91
2022-12-08 18:22:18.3260,-1.041,0.761,0.305,3.07,-1.3,-4.9
2022-12-08 18:22:18.3360,-1.048,0.715,0.161,3.08,-0.81,-4.05
2022-12-08 18:22:18.3460,-1.02,0.652,0.006,3.2,-0.3,-2.59
2022-12-08 18:22:18.3560,-0.961,0.589,-0.127,2.97,0.37,-1.01
2022-12-08 18:22:18.3660,-0.87,0.526,-0.234,2.43,1.04,0.34
2022-12-08 18:22:18.3760,-0.737,0.465,-0.309,1.56,1.68,1.42
2022-12-08 18:22:18.3860,-0.591,0.424,-0.335,0.26,2.28,2.18
2022-12-08 18:22:18.3960,-0.449,0.404,-0.325,-1.18,2.68,2.42
2022-12-08 18:22:18.4060,-0.332,0.392,-0.292,-2.58,2.86,2.27
2022-12-08 18:22:18.4160,-0.238,0.381,-0.232,-3.73,2.97,1.88
2022-12-08 18:22:18.4260,-0.16,0.368,-0.151,-4.66,3.06,1.22
2022-12-08 18:22:18.4360,-0.135,0.342,-0.059,-5.41,3.19,0.33
2022-12-08 18:22:18.4460,-0.177,0.321,0.033,-5.64,3.45,-0.67
2022-12-08 18:22:18.4560,-0.276,0.312,0.112,-5.2,3.66,-1.65
2022-12-08 18:22:18.4660,-0.408,0.306,0.175,-4.19,3.77,-2.51
2022-12-08 18:22:18.4760,-0.547,0.3,0.219,-2.87,3.84,-3.2
2022-12-08 18:22:18.4860,-0.69,0.3,0.258,-1.49,3.91,-3.68
2022-12-08 18:22:18.4960,-0.815,0.327,0.303,-0.09,3.9,-4.1
2022-12-08 18:22:18.5060,-0.925,0.407,0.34,1.13,3.62,-4.54
2022-12-08 18:22:18.5160,-0.981,0.495,0.352,2.15,2.8,-4.86
2022-12-08 18:22:18.5260,-0.958,0.57,0.316,2.64,1.87,-4.91
2022-12-08 18:22:18.5360,-0.87,0.63,0.202,2.34,1.07,-4.45
2022-12-08 18:22:18.5460,-0.776,0.689,0.035,1.38,0.42,-3.22
2022-12-08 18:22:18.5560,-0.72,0.766,-0.115,0.37,-0.24,-1.46
2022-12-08 18:22:18.5660,-0.693,0.852,-0.237,-0.27,-1.07,0.12
2022-12-08 18:22:18.5760,-0.707,0.933,-0.306,-0.6,-1.99,1.41
2022-12-08 18:22:18.5860,-0.733,0.989,-0.329,-0.53,-2.84,2.16
2022-12-08 18:22:18.5960,-0.742,0.997,-0.316,-0.33,-3.45,2.44
2022-12-08 18:22:18.6060,-0.755,0.979,-0.271,-0.28,-3.57,2.34
2022-12-08 18:22:18.6160,-0.776,0.965,-0.205,-0.19,-3.44,1.93
2022-12-08 18:22:18.6260,-0.804,0.966,-0.123,-0.02,-3.34,1.31
2022-12-08 18:22:18.6360,-0.869,1.021,-0.055,0.22,-3.39,0.54
2022-12-08 18:22:18.6460,-0.928,1.107,-0.007,0.83,-3.96,-0.1
2022-12-08 18:22:18.6560,-0.92,1.157,0.029,1.38,-4.84,-0.53
2022-12-08 18:22:18.6660,-0.844,1.137,0.034,1.29,-5.35,-0.83
2022-12-08 18:22:18.6760,-0.77,1.094,-0.007,0.53,-5.16,-0.83
2022-12-08 18:22:18.6870,-0.734,1.046,-0.091,-0.19,-4.72,-0.35
2022-12-08 18:22:18.6970,-0.703,0.956,-0.185,-0.52,-4.22,0.54
2022-12-08 18:22:18.7070,-0.674,0.839,-0.255,-0.78,-3.28,1.52
2022-12-08 18:22:18.7170,-0.674,0.733,-0.298,-1.02,-2.07,2.26
2022-12-08 18:22:18.7270,-0.716,0.662,-0.307,-0.97,-0.96,2.7
2022-12-08 18:22:18.7370,-0.8,0.651,-0.265,-0.49,-0.19,2.79
2022-12-08 18:22:18.7470,-0.887,0.671,-0.175,0.38,-0.03,2.36
2022-12-08 18:22:18.7570,-0.948,0.688,-0.057,1.27,-0.18,1.43
2022-12-08 18:22:18.7670,-0.978,0.7,0.055,1.89,-0.32,0.23
2022-12-08 18:22:18.7770,-0.996,0.725,0.155,2.19,-0.44,-0.91
2022-12-08 18:22:18.7870,-0.987,0.75,0.234,2.35,-0.7,-1.91
2022-12-08 18:22:18.7970,-0.946,0.759,0.276,2.23,-0.99,-2.69
2022-12-08 18:22:18.8070,-0.879,0.77,0.273,1.79,-1.12,-3.09
2022-12-08 18:22:18.8170,-0.797,0.795,0.216,1.07,-1.3,-3.02
2022-12-08 18:22:18.8270,-0.72,0.818,0.117,0.21,-1.61,-2.42
2022-12-08 18:22:18.8370,-0.628,0.833,0.011,-0.62,-1.92,-1.41
2022-12-08 18:22:18.8470,-0.53,0.839,-0.081,-1.57,-2.14,-0.33
2022-12-08 18:22:18.8570,-0.42,0.825,-0.161,-2.59,-2.26,0.61
2022-12-08 18:22:18.8670,-0.32,0.784,-0.233,-3.71,-2.19,1.4
2022-12-08 18:22:18.8770,-0.243,0.721,-0.293,-4.71,-1.81,2.11
2022-12-08 18:22:18.8870,-0.21,0.655,-0.313,-5.48,-1.2,2.67
2022-12-08 18:22:18.8970,-0.22,0.594,-0.302,-5.78,-0.54,2.84
2022-12-08 18:22:18.9070,-0.262,0.545,-0.259,-5.65,0.1,2.7
2022-12-08 18:22:18.9170,-0.312,0.509,-0.203,-5.2,0.64,2.23
2022-12-08 18:22:18.9270,-0.361,0.475,-0.143,-4.66,1.05,1.64
2022-12-08 18:22:18.9370,-0.401,0.444,-0.095,-4.12,1.45,1.0
2022-12-08 18:22:18.9470,-0.433,0.425,-0.046,-3.68,1.81,0.48
2022-12-08 18:22:18.9570,-0.46,0.417,-0.002,-3.31,2.06,-0.04
2022-12-08 18:22:18.9670,-0.484,0.414,0.04,-2.99,2.2,-0.53
2022-12-08 18:22:18.9770,-0.505,0.419,0.075,-2.7,2.29,-0.99
2022-12-08 18:22:18.9870,-0.516,0.414,0.094,-2.45,2.29,-1.38
2022-12-08 18:22:18.9970,-0.529,0.407,0.091,-2.29,2.39,-1.61
2022-12-08 18:22:19.0070,-0.549,0.409,0.066,-2.12,2.52,-1.6
2022-12-08 18:22:19.0170,-0.568,0.41,0.028,-1.87,2.54,-1.37
2022-12-08 18:22:19.0270,-0.599,0.41,-0.018,-1.65,2.59,-1.01
2022-12-08 18:22:19.0370,-0.635,0.42,-0.059,-1.29,2.64,-0.56
2022-12-08 18:22:19.0470,-0.666,0.432,-0.092,-0.9,2.58,-0.16
2022-12-08 18:22:19.0570,-0.705,0.443,-0.119,-0.55,2.51,0.15
2022-12-08 18:22:19.0670,-0.746,0.46,-0.136,-0.12,2.44,0.4
2022-12-08 18:22:19.0770,-0.785,0.495,-0.136,0.31,2.3,0.54
2022-12-08 18:22:19.0870,-0.816,0.547,-0.124,0.71,1.98,0.52
2022-12-08 18:22:19.0970,-0.842,0.59,-0.101,1.05,1.5,0.36
2022-12-08 18:22:19.1080,-0.871,0.633,-0.068,1.32,1.09,0.09
2022-12-08 18:22:19.1180,-0.905,0.687,-0.033,1.63,0.69,-0.28
2022-12-08 18:22:19.1280,-0.938,0.731,-0.008,1.99,0.18,-0.66
2022-12-08 18:22:19.1380,-0.954,0.746,-0.0,2.35,-0.23,-0.95
2022-12-08 18:22:19.1480,-0.963,0.738,-0.006,2.53,-0.36,-1.06
2022-12-08 18:22:19.1580,-0.986,0.732,-0.021,2.65,-0.25,-1.03
2022-12-08 18:22:19.1680,-1.048,0.761,-0.036,2.91,-0.17,-0.9
2022-12-08 18:22:19.1780,-1.113,0.826,-0.047,3.55,-0.42,-0.77
2022-12-08 18:22:19.1880,-1.108,0.869,-0.062,4.2,-1.04,-0.67
2022-12-08 18:22:19.1980,-1.043,0.868,-0.102,4.17,-1.44,-0.51
2022-12-08 18:22:19.2080,-0.962,0.857,-0.167,3.56,-1.41,-0.13
2022-12-08 18:22:19.2180,-0.914,0.839,-0.235,2.79,-1.28,0.52
2022-12-08 18:22:19.2280,-0.914,0.806,-0.281,2.37,-1.06,1.17
2022-12-08 18:22:19.2380,-0.981,0.781,-0.289,2.43,-0.69,1.6
2022-12-08 18:22:19.2480,-1.097,0.791,-0.257,3.15,-0.39,1.64
2022-12-08 18:22:19.2580,-1.233,0.817,-0.211,4.36,-0.43,1.3
2022-12-08 18:22:19.2680,-1.344,0.835,-0.179,5.74,-0.65,0.81
2022-12-08 18:22:19.2780,-1.423,0.842,-0.143,6.87,-0.8,0.45
2022-12-08 18:22:19.2880,-1.456,0.83,-0.1,7.66,-0.86,0.07
2022-12-08 18:22:19.2980,-1.431,0.815,-0.048,7.96,-0.77,-0.38
2022-12-08 18:22:19.3080,-1.354,0.812,-0.009,7.66,-0.67,-0.89
2022-12-08 18:22:19.3180,-1.247,0.826,-0.007,6.82,-0.7,-1.26
2022-12-08 18:22:19.3280,-1.149,0.854,-0.041,5.67,-0.93,-1.24
2022-12-08 18:22:19.3380,-1.048,0.883,-0.089,4.6,-1.3,-0.87
2022-12-08 18:22:19.3480,-0.937,0.892,-0.142,3.5,-1.68,-0.35
2022-12-08 18:22:19.3580,-0.808,0.875,-0.196,2.29,-1.87,0.21
2022-12-08 18:22:19.3680,-0.687,0.842,-0.243,0.93,-1.8,0.77
2022-12-08 18:22:19.3780,-0.587,0.795,-0.277,-0.34,-1.57,1.24
2022-12-08 18:22:19.3880,-0.502,0.738,-0.3,-1.39,-1.18,1.56
2022-12-08 18:22:19.3980,-0.432,0.678,-0.307,-2.29,-0.7,1.76
2022-12-08 18:22:19.4080,-0.376,0.62,-0.289,-3.02,-0.17,1.78
2022-12-08 18:22:19.4180,-0.337,0.578,-0.246,-3.61,0.35,1.54
2022-12-08 18:22:19.4280,-0.309,0.555,-0.182,-4.02,0.71,1.02
2022-12-08 18:22:19.4380,-0.285,0.539,-0.114,-4.32,0.88,0.31
2022-12-08 18:22:19.4480,-0.268,0.525,-0.049,-4.58,0.99,-0.44
2022-12-08 18:22:19.4580,-0.263,0.512,0.01,-4.77,1.08,-1.16
2022-12-08 18:22:19.4680,-0.282,0.499,0.059,-4.83,1.17,-1.8
2022-12-08 18:22:19.4790,-0.327,0.494,0.086,-4.66,1.27,-2.32
2022-12-08 18:22:19.4890,-0.379,0.491,0.094,-4.24,1.3,-2.61
2022-12-08 18:22:19.4980,-0.412,0.491,0.097,-3.74,1.3,-2.7
2022-12-08 18:22:19.5090,-0.427,0.5,0.106,-3.44,1.28,-2.73
2022-12-08 18:22:19.5190,-0.451,0.524,0.115,-3.31,1.16,-2.8
2022-12-08 18:22:19.5290,-0.478,0.548,0.122,-3.11,0.91,-2.87
2022-12-08 18:22:19.5390,-0.494,0.56,0.123,-2.87,0.65,-2.91
2022-12-08 18:22:19.5490,-0.516,0.569,0.111,-2.73,0.51,-2.89
2022-12-08 18:22:19.5590,-0.549,0.587,0.079,-2.54,0.41,-2.71
2022-12-08 18:22:19.5690,-0.585,0.611,0.037,-2.25,0.21,-2.34
2022-12-08 18:22:19.5790,-0.615,0.63,-0.007,-1.92,-0.04,-1.86
2022-12-08 18:22:19.5890,-0.644,0.656,-0.053,-1.64,-0.24,-1.36
2022-12-08 18:22:19.5990,-0.665,0.703,-0.086,-1.39,-0.52,-0.85
2022-12-08 18:22:19.6090,-0.672,0.761,-0.095,-1.21,-1.0,-0.46
2022-12-08 18:22:19.6190,-0.68,0.825,-0.089,-1.17,-1.61,-0.33
2022-12-08 18:22:19.6290,-0.691,0.88,-0.084,-1.13,-2.26,-0.34
2022-12-08 18:22:19.6390,-0.696,0.919,-0.082,-1.04,-2.83,-0.33
2022-12-08 18:22:19.6490,-0.694,0.947,-0.079,-1.02,-3.22,-0.3
2022-12-08 18:22:19.6590,-0.687,0.969,-0.075,-1.05,-3.51,-0.28
2022-12-08 18:22:19.6690,-0.686,0.991,-0.073,-1.13,-3.73,-0.26
2022-12-08 18:22:19.6790,-0.73,1.039,-0.066,-1.13,-3.94,-0.23
2022-12-08 18:22:19.6890,-0.792,1.103,-0.059,-0.7,-4.39,-0.24
2022-12-08 18:22:19.6990,-0.793,1.117,-0.054,-0.08,-4.99,-0.26
2022-12-08 18:22:19.7090,-0.743,1.058,-0.073,-0.04,-5.08,-0.23
2022-12-08 18:22:19.7190,-0.718,1.008,-0.12,-0.5,-4.46,0.03
2022-12-08 18:22:19.7290,-0.719,0.98,-0.181,-0.71,-3.91,0.55
2022-12-08 18:22:19.7390,-0.694,0.912,-0.227,-0.64,-3.56,1.22
2022-12-08 18:22:19.7490,-0.661,0.831,-0.253,-0.83,-2.81,1.73
2022-12-08 18:22:19.7590,-0.675,0.791,-0.271,-1.09,-1.93,2.03
2022-12-08 18:22:19.7690,-0.739,0.791,-0.278,-0.88,-1.44,2.25
2022-12-08 18:22:19.7790,-0.822,0.803,-0.271,-0.17,-1.35,2.35
2022-12-08 18:22:19.7890,-0.903,0.813,-0.251,0.72,-1.38,2.31
2022-12-08 18:22:19.7990,-0.972,0.834,-0.209,1.59,-1.4,2.11
2022-12-08 18:22:19.8090,-1.027,0.856,-0.151,2.33,-1.54,1.7
2022-12-08 18:22:19.8190,-1.067,0.862,-0.092,2.92,-1.7,1.12
2022-12-08 18:22:19.8290,-1.094,0.849,-0.031,3.34,-1.72,0.52
2022-12-08 18:22:19.8390,-1.112,0.824,0.022,3.64,-1.57,-0.08
2022-12-08 18:22:19.8490,-1.081,0.785,0.051,3.82,-1.31,-0.6
2022-12-08 18:22:19.8590,-1.006,0.749,0.055,3.51,-0.94,-0.89
2022-12-08 18:22:19.8690,-0.905,0.741,0.032,2.75,-0.61,-0.93
2022-12-08 18:22:19.8800,-0.792,0.751,-0.015,1.73,-0.57,-0.71
2022-12-08 18:22:19.8890,-0.665,0.743,-0.063,0.58,-0.71,-0.26
2022-12-08 18:22:19.9000,-0.527,0.703,-0.097,-0.71,-0.67,0.17
2022-12-08 18:22:19.9090,-0.399,0.639,-0.119,-2.09,-0.32,0.46
2022-12-08 18:22:19.9200,-0.307,0.566,-0.128,-3.36,0.29,0.63
2022-12-08 18:22:19.9300,-0.256,0.506,-0.117,-4.26,1.0,0.65
2022-12-08 18:22:19.9400,-0.24,0.462,-0.097,-4.74,1.6,0.48
2022-12-08 18:22:19.9500,-0.256,0.422,-0.075,-4.87,2.06,0.22
2022-12-08 18:22:19.9600,-0.298,0.385,-0.051,-4.68,2.49,-0.05
2022-12-08 18:22:19.9700,-0.349,0.357,-0.022,-4.22,2.9,-0.34
2022-12-08 18:22:19.9800,-0.398,0.335,0.009,-3.67,3.22,-0.66
2022-12-08 18:22:19.9900,-0.44,0.317,0.033,-3.14,3.49,-1.0
2022-12-08 18:22:20.0000,-0.488,0.301,0.048,-2.69,3.71,-1.25
2022-12-08 18:22:20.0100,-0.534,0.297,0.053,-2.17,3.91,-1.42
2022-12-08 18:22:20.0200,-0.576,0.306,0.047,-1.68,3.97,-1.47
2022-12-08 18:22:20.0300,-0.605,0.314,0.026,-1.24,3.92,-1.4
2022-12-08 18:22:20.0400,-0.628,0.325,-0.008,-0.93,3.87,-1.19
2022-12-08 18:22:20.0500,-0.645,0.343,-0.051,-0.68,3.78,-0.83
2022-12-08 18:22:20.0600,-0.653,0.364,-0.085,-0.51,3.61,-0.39
2022-12-08 18:22:20.0700,-0.663,0.393,-0.11,-0.42,3.43,-0.03
2022-12-08 18:22:20.0800,-0.677,0.426,-0.121,-0.31,3.15,0.23
2022-12-08 18:22:20.0900,-0.688,0.46,-0.119,-0.17,2.83,0.34
2022-12-08 18:22:20.1000,-0.696,0.495,-0.111,-0.05,2.51,0.32
2022-12-08 18:22:20.1100,-0.711,0.539,-0.098,0.03,2.17,0.25
2022-12-08 18:22:20.1200,-0.744,0.589,-0.082,0.19,1.75,0.11
2022-12-08 18:22:20.1300,-0.785,0.646,-0.063,0.53,1.27,-0.06
2022-12-08 18:22:20.1400,-0.828,0.706,-0.051,0.94,0.72,-0.25
2022-12-08 18:22:20.1500,-0.87,0.755,-0.048,1.39,0.16,-0.36
2022-12-08 18:22:20.1600,-0.915,0.792,-0.054,1.83,-0.29,-0.38
2022-12-08 18:22:20.1700,-0.951,0.813,-0.073,2.31,-0.62,-0.3
2022-12-08 18:22:20.1800,-0.974,0.802,-0.114,2.69,-0.79,-0.07
2022-12-08 18:22:20.1900,-0.986,0.758,-0.175,2.97,-0.64,0.38
2022-12-08 18:22:20.2000,-1.009,0.708,-0.229,3.13,-0.16,1.03
2022-12-08 18:22:20.2100,-1.079,0.705,-0.272,3.41,0.37,1.61
2022-12-08 18:22:20.2200,-1.148,0.743,-0.305,4.13,0.45,2.07
2022-12-08 18:22:20.2300,-1.126,0.733,-0.339,4.84,0.1,2.44
2022-12-08 18:22:20.2400,-1.043,0.685,-0.381,4.63,0.22,2.79
2022-12-08 18:22:20.2500,-0.967,0.665,-0.421,3.83,0.69,3.21
2022-12-08 18:22:20.2600,-0.909,0.655,-0.439,3.1,0.9,3.57
2022-12-08 18:22:20.2700,-0.873,0.619,-0.418,2.55,1.01,3.69
2022-12-08 18:22:20.2800,-0.895,0.606,-0.366,2.22,1.38,3.41
2022-12-08 18:22:20.2910,-0.988,0.65,-0.296,2.46,1.52,2.8
2022-12-08 18:22:20.3000,-1.084,0.711,-0.218,3.39,1.09,2.02
2022-12-08 18:22:20.3110,-1.137,0.758,-0.151,4.33,0.49,1.17
2022-12-08 18:22:20.3200,-1.179,0.82,-0.099,4.85,0.0,0.43
2022-12-08 18:22:20.3300,-1.207,0.886,-0.064,5.22,-0.64,-0.13
2022-12-08 18:22:20.3410,-1.228,0.94,-0.058,5.45,-1.34,-0.5
2022-12-08 18:22:20.3510,-1.243,0.978,-0.081,5.59,-1.91,-0.56
2022-12-08 18:22:20.3610,-1.228,0.986,-0.119,5.67,-2.35,-0.32
2022-12-08 18:22:20.3710,-1.183,0.963,-0.165,5.45,-2.49,0.09
2022-12-08 18:22:20.3810,-1.128,0.918,-0.214,4.93,-2.33,0.57
2022-12-08 18:22:20.3910,-1.065,0.857,-0.266,4.32,-1.95,1.1
2022-12-08 18:22:20.4010,-1.002,0.788,-0.313,3.63,-1.43,1.64
2022-12-08 18:22:20.4110,-0.946,0.712,-0.347,2.94,-0.81,2.11
2022-12-08 18:22:20.4210,-0.897,0.641,-0.361,2.32,-0.14,2.43
2022-12-08 18:22:20.4310,-0.862,0.587,-0.35,1.77,0.48,2.53
2022-12-08 18:22:20.4410,-0.837,0.552,-0.306,1.36,0.94,2.34
2022-12-08 18:22:20.4510,-0.811,0.528,-0.241,1.05,1.18,1.82
2022-12-08 18:22:20.4610,-0.776,0.506,-0.183,0.72,1.33,1.08
2022-12-08 18:22:20.4710,-0.75,0.491,-0.139,0.31,1.43,0.4
2022-12-08 18:22:20.4810,-0.729,0.485,-0.103,-0.03,1.45,-0.15
2022-12-08 18:22:20.4910,-0.705,0.477,-0.067,-0.33,1.38,-0.62
2022-12-08 18:22:20.5010,-0.687,0.466,-0.034,-0.66,1.31,-1.07
2022-12-08 18:22:20.5110,-0.669,0.46,-0.001,-0.94,1.27,-1.48
2022-12-08 18:22:20.5210,-0.655,0.464,0.034,-1.22,1.16,-1.88
2022-12-08 18:22:20.5310,-0.641,0.475,0.063,-1.47,0.94,-2.27
2022-12-08 18:22:20.5410,-0.623,0.488,0.079,-1.73,0.64,-2.59
2022-12-08 18:22:20.5510,-0.601,0.508,0.076,-2.03,0.32,-2.76
2022-12-08 18:22:20.5610,-0.572,0.532,0.057,-2.37,-0.08,-2.73
2022-12-08 18:22:20.5710,-0.546,0.557,0.029,-2.76,-0.51,-2.55
2022-12-08 18:22:20.5810,-0.514,0.591,-0.005,-3.14,-0.96,-2.26
2022-12-08 18:22:20.5910,-0.473,0.616,-0.031,-3.56,-1.48,-1.92
2022-12-08 18:22:20.6010,-0.435,0.631,-0.052,-4.05,-1.92,-1.66
2022-12-08 18:22:20.6110,-0.406,0.643,-0.067,-4.51,-2.24,-1.43
2022-12-08 18:22:20.6210,-0.384,0.656,-0.079,-4.86,-2.52,-1.29
2022-12-08 18:22:20.6310,-0.382,0.679,-0.086,-5.14,-2.8,-1.16
2022-12-08 18:22:20.6410,-0.401,0.716,-0.083,-5.21,-3.15,-1.09
