time,gFx,gFy,gFz,ax,ay,az
,0.075,-0.105,-0.88,0.77,1.01,-1.37
2022-12-08 18:20:05.4820,0.067,-0.121,-0.877,0.53,0.9,-1.1
2022-12-08 18:20:05.4890,0.047,-0.139,-0.88,0.59,1.06,-1.13
2022-12-08 18:20:05.4990,0.019,-0.172,-0.893,0.75,1.24,-1.11
2022-12-08 18:20:05.5090,-0.014,-0.199,-0.909,0.98,1.55,-0.98
2022-12-08 18:20:05.5190,-0.033,-0.206,-0.923,1.28,1.79,-0.83
2022-12-08 18:20:05.5290,-0.03,-0.21,-0.94,1.43,1.84,-0.7
2022-12-08 18:20:05.5390,-0.017,-0.21,-0.952,1.38,1.87,-0.53
2022-12-08 18:20:05.5490,-0.007,-0.203,-0.945,1.24,1.84,-0.41
2022-12-08 18:20:05.5590,0.009,-0.209,-0.923,1.15,1.76,-0.48
2022-12-08 18:20:05.5690,0.016,-0.218,-0.901,1.02,1.8,-0.7
2022-12-08 18:20:05.5790,0.036,-0.223,-0.889,0.97,1.87,-0.91
2022-12-08 18:20:05.5890,0.071,-0.226,-0.888,0.79,1.91,-1.02
2022-12-08 18:20:05.5990,0.099,-0.23,-0.897,0.45,1.93,-1.03
2022-12-08 18:20:05.6090,0.097,-0.222,-0.897,0.18,1.97,-0.94
2022-12-08 18:20:05.6190,0.076,-0.215,-0.886,0.19,1.89,-0.94
2022-12-08 18:20:05.6290,0.078,-0.219,-0.9,0.37,1.83,-1.06
2022-12-08 18:20:05.6390,0.078,-0.221,-0.929,0.33,1.88,-0.92
2022-12-08 18:20:05.6490,0.08,-0.212,-0.956,0.32,1.92,-0.64
2022-12-08 18:20:05.6590,0.092,-0.201,-0.987,0.28,1.86,-0.37
2022-12-08 18:20:05.6690,0.097,-0.186,-1.01,0.14,1.78,-0.07
2022-12-08 18:20:05.6790,0.101,-0.172,-1.034,0.08,1.67,0.15
2022-12-08 18:20:05.6890,0.104,-0.166,-1.065,0.01,1.56,0.38
2022-12-08 18:20:05.6990,0.107,-0.181,-1.107,-0.06,1.53,0.68
2022-12-08 18:20:05.7090,0.109,-0.204,-1.163,-0.15,1.7,1.08
2022-12-08 18:20:05.7190,0.097,-0.216,-1.215,-0.25,1.94,1.63
2022-12-08 18:20:05.7290,0.065,-0.195,-1.236,-0.2,2.05,2.14
2022-12-08 18:20:05.7390,0.038,-0.167,-1.248,0.06,1.83,2.34
2022-12-08 18:20:05.7490,0.035,-0.145,-1.245,0.29,1.52,2.45
2022-12-08 18:20:05.7590,0.059,-0.143,-1.238,0.31,1.26,2.42
2022-12-08 18:20:05.7690,0.11,-0.154,-1.237,0.12,1.18,2.36
2022-12-08 18:20:05.7790,0.145,-0.163,-1.229,-0.31,1.23,2.36
2022-12-08 18:20:05.7900,0.145,-0.166,-1.227,-0.6,1.28,2.28
2022-12-08 18:20:05.7990,0.126,-0.17,-1.255,-0.55,1.28,2.27
2022-12-08 18:20:05.8090,0.109,-0.15,-1.289,-0.35,1.29,2.54
2022-12-08 18:20:05.8200,0.113,-0.11,-1.312,-0.19,1.08,2.88
2022-12-08 18:20:05.8300,0.122,-0.063,-1.306,-0.25,0.65,3.1
2022-12-08 18:20:05.8400,0.127,-0.02,-1.29,-0.37,0.13,3.05
2022-12-08 18:20:05.8500,0.13,0.005,-1.262,-0.47,-0.34,2.88
2022-12-08 18:20:05.8600,0.133,0.017,-1.224,-0.54,-0.67,2.61
2022-12-08 18:20:05.8700,0.137,0.015,-1.192,-0.61,-0.86,2.24
2022-12-08 18:20:05.8800,0.131,0.011,-1.162,-0.69,-0.94,1.93
2022-12-08 18:20:05.8900,0.108,0.01,-1.099,-0.68,-0.99,1.65
2022-12-08 18:20:05.9000,0.096,-0.006,-1.055,-0.49,-1.06,1.03
2022-12-08 18:20:05.9100,0.086,-0.041,-1.043,-0.4,-0.99,0.61
2022-12-08 18:20:05.9200,0.075,-0.069,-1.001,-0.34,-0.73,0.5
2022-12-08 18:20:05.9300,0.077,-0.087,-0.947,-0.25,-0.53,0.09
2022-12-08 18:20:05.9400,0.092,-0.111,-0.908,-0.29,-0.42,-0.43
2022-12-08 18:20:05.9500,0.104,-0.134,-0.877,-0.46,-0.24,-0.81
2022-12-08 18:20:05.9600,0.121,-0.137,-0.832,-0.6,-0.07,-1.1
2022-12-08 18:20:05.9700,0.15,-0.134,-0.792,-0.78,-0.08,-1.54
2022-12-08 18:20:05.9800,0.172,-0.135,-0.78,-1.1,-0.14,-1.93
2022-12-08 18:20:05.9900,0.174,-0.132,-0.805,-1.36,-0.15,-2.05
2022-12-08 18:20:06.0000,0.166,-0.126,-0.828,-1.43,-0.2,-1.8
2022-12-08 18:20:06.0100,0.151,-0.12,-0.845,-1.42,-0.27,-1.57
2022-12-08 18:20:06.0200,0.132,-0.12,-0.844,-1.32,-0.35,-1.4
2022-12-08 18:20:06.0300,0.119,-0.131,-0.839,-1.17,-0.38,-1.41
2022-12-08 18:20:06.0400,0.112,-0.153,-0.831,-1.07,-0.28,-1.46
2022-12-08 18:20:06.0500,0.111,-0.163,-0.793,-1.02,-0.1,-1.54
2022-12-08 18:20:06.0600,0.118,-0.168,-0.758,-1.03,-0.02,-1.9
2022-12-08 18:20:06.0700,0.13,-0.177,-0.746,-1.12,-0.01,-2.24
2022-12-08 18:20:06.0800,0.143,-0.173,-0.763,-1.28,0.06,-2.35
2022-12-08 18:20:06.0900,0.133,-0.159,-0.788,-1.43,0.0,-2.18
2022-12-08 18:20:06.1000,0.11,-0.159,-0.793,-1.36,-0.15,-1.94
2022-12-08 18:20:06.1100,0.09,-0.176,-0.789,-1.16,-0.19,-1.88
2022-12-08 18:20:06.1200,0.07,-0.201,-0.78,-0.98,-0.05,-1.91
2022-12-08 18:20:06.1300,0.088,-0.184,-0.753,-0.8,0.15,-1.99
2022-12-08 18:20:06.1400,0.097,-0.155,-0.732,-1.0,-0.05,-2.25
2022-12-08 18:20:06.1500,0.046,-0.216,-0.78,-1.13,-0.39,-2.44
2022-12-08 18:20:06.1600,0.044,-0.261,-0.824,-0.69,0.14,-1.96
2022-12-08 18:20:06.1710,0.049,-0.277,-0.804,-0.74,0.5,-1.51
2022-12-08 18:20:06.1810,0.032,-0.289,-0.79,-0.87,0.59,-1.69
2022-12-08 18:20:06.1910,0.009,-0.295,-0.784,-0.79,0.64,-1.81
2022-12-08 18:20:06.2000,0.019,-0.288,-0.781,-0.63,0.65,-1.85
2022-12-08 18:20:06.2110,0.043,-0.284,-0.791,-0.78,0.53,-1.87
2022-12-08 18:20:06.2210,0.052,-0.284,-0.83,-1.07,0.46,-1.75
2022-12-08 18:20:06.2310,0.049,-0.281,-0.883,-1.2,0.44,-1.36
2022-12-08 18:20:06.2410,0.051,-0.283,-0.918,-1.21,0.41,-0.84
2022-12-08 18:20:06.2510,0.044,-0.31,-0.954,-1.24,0.42,-0.5
2022-12-08 18:20:06.2610,0.023,-0.336,-0.98,-1.21,0.69,-0.14
2022-12-08 18:20:06.2710,-0.011,-0.351,-1.003,-1.03,0.95,0.12
2022-12-08 18:20:06.2810,-0.056,-0.361,-1.021,-0.73,1.1,0.35
2022-12-08 18:20:06.2910,-0.103,-0.37,-1.031,-0.34,1.2,0.52
2022-12-08 18:20:06.3010,-0.153,-0.366,-1.043,0.07,1.3,0.63
2022-12-08 18:20:06.3110,-0.194,-0.348,-1.077,0.5,1.27,0.74
2022-12-08 18:20:06.3210,-0.217,-0.329,-1.135,0.84,1.12,1.08
2022-12-08 18:20:06.3310,-0.225,-0.298,-1.178,1.04,0.98,1.64
2022-12-08 18:20:06.3410,-0.205,-0.26,-1.196,1.1,0.72,2.05
2022-12-08 18:20:06.3510,-0.171,-0.22,-1.221,0.9,0.43,2.21
2022-12-08 18:20:06.3610,-0.151,-0.175,-1.294,0.57,0.13,2.43
2022-12-08 18:20:06.3710,-0.148,-0.119,-1.406,0.39,-0.19,3.13
2022-12-08 18:20:06.3810,-0.153,-0.069,-1.512,0.36,-0.63,4.2
2022-12-08 18:20:06.3910,-0.15,-0.024,-1.579,0.42,-1.02,5.23
2022-12-08 18:20:06.4010,-0.152,0.008,-1.582,0.39,-1.39,5.87
2022-12-08 18:20:06.4110,-0.167,0.013,-1.525,0.41,-1.66,5.89
2022-12-08 18:20:06.4210,-0.192,-0.009,-1.414,0.56,-1.71,5.33
2022-12-08 18:20:06.4310,-0.245,-0.046,-1.287,0.79,-1.51,4.25
2022-12-08 18:20:06.4410,-0.32,-0.089,-1.182,1.31,-1.18,3.01
2022-12-08 18:20:06.4510,-0.395,-0.12,-1.113,2.04,-0.78,1.98
2022-12-08 18:20:06.4610,-0.462,-0.131,-1.069,2.77,-0.49,1.31
2022-12-08 18:20:06.4710,-0.495,-0.122,-1.029,3.45,-0.39,0.88
2022-12-08 18:20:06.4810,-0.474,-0.1,-0.997,3.8,-0.47,0.48
2022-12-08 18:20:06.4910,-0.405,-0.077,-0.952,3.65,-0.68,0.16
2022-12-08 18:20:06.5010,-0.315,-0.066,-0.888,3.05,-0.89,-0.29
2022-12-08 18:20:06.5110,-0.228,-0.07,-0.829,2.26,-0.98,-0.93
2022-12-08 18:20:06.5220,-0.163,-0.087,-0.808,1.49,-0.94,-1.52
2022-12-08 18:20:06.5310,-0.121,-0.116,-0.795,0.92,-0.76,-1.73
2022-12-08 18:20:06.5420,-0.109,-0.15,-0.762,0.56,-0.48,-1.86
2022-12-08 18:20:06.5520,-0.124,-0.166,-0.717,0.47,-0.16,-2.19
2022-12-08 18:20:06.5610,-0.147,-0.171,-0.682,0.63,-0.03,-2.62
2022-12-08 18:20:06.5710,-0.166,-0.18,-0.674,0.84,-0.02,-2.96
2022-12-08 18:20:06.5820,-0.182,-0.189,-0.68,0.99,0.02,-3.03
2022-12-08 18:20:06.5920,-0.197,-0.208,-0.681,1.11,0.07,-2.96
2022-12-08 18:20:06.6020,-0.232,-0.243,-0.69,1.22,0.19,-2.93
2022-12-08 18:20:06.6120,-0.258,-0.206,-0.664,1.52,0.47,-2.82
2022-12-08 18:20:06.6220,-0.265,-0.195,-0.651,1.72,0.01,-3.06
2022-12-08 18:20:06.6320,-0.251,-0.217,-0.635,1.73,-0.18,-3.16
2022-12-08 18:20:06.6420,-0.214,-0.224,-0.604,1.54,-0.06,-3.3
2022-12-08 18:20:06.6520,-0.178,-0.234,-0.563,1.12,-0.1,-3.56
2022-12-08 18:20:06.6620,-0.152,-0.242,-0.551,0.71,-0.12,-3.93
2022-12-08 18:20:06.6720,-0.135,-0.253,-0.557,0.39,-0.16,-4.02
2022-12-08 18:20:06.6820,-0.122,-0.252,-0.559,0.16,-0.16,-3.91
2022-12-08 18:20:06.6920,-0.107,-0.249,-0.563,-0.02,-0.28,-3.86
2022-12-08 18:20:06.7020,-0.088,-0.25,-0.568,-0.23,-0.41,-3.78
2022-12-08 18:20:06.7120,-0.073,-0.258,-0.581,-0.45,-0.47,-3.71
2022-12-08 18:20:06.7220,-0.052,-0.265,-0.619,-0.63,-0.46,-3.55
2022-12-08 18:20:06.7320,-0.03,-0.272,-0.668,-0.85,-0.43,-3.17
2022-12-08 18:20:06.7420,-0.012,-0.291,-0.712,-1.07,-0.37,-2.68
2022-12-08 18:20:06.7520,-0.008,-0.313,-0.755,-1.23,-0.17,-2.25
2022-12-08 18:20:06.7620,-0.018,-0.334,-0.807,-1.25,0.06,-1.84
2022-12-08 18:20:06.7720,-0.037,-0.365,-0.866,-1.11,0.31,-1.35
2022-12-08 18:20:06.7820,-0.059,-0.391,-0.917,-0.88,0.65,-0.79
2022-12-08 18:20:06.7920,-0.089,-0.428,-0.945,-0.63,0.96,-0.31
2022-12-08 18:20:06.8020,-0.122,-0.469,-0.96,-0.32,1.36,-0.06
2022-12-08 18:20:06.8120,-0.135,-0.475,-0.989,0.0,1.79,0.09
2022-12-08 18:20:06.8220,-0.132,-0.434,-1.068,0.09,1.86,0.37
2022-12-08 18:20:06.8320,-0.183,-0.432,-1.17,0.0,1.44,1.17
2022-12-08 18:20:06.8420,-0.2,-0.435,-1.227,0.44,1.38,2.19
2022-12-08 18:20:06.8520,-0.236,-0.514,-1.264,0.54,1.32,2.78
2022-12-08 18:20:06.8620,-0.188,-0.601,-1.234,0.81,1.97,3.2
2022-12-08 18:20:06.8720,-0.117,-0.644,-1.146,0.28,2.67,2.97
2022-12-08 18:20:06.8820,-0.071,-0.661,-1.03,-0.46,2.93,2.17
2022-12-08 18:20:06.8930,-0.052,-0.659,-0.897,-0.93,2.94,1.1
2022-12-08 18:20:06.9020,-0.038,-0.652,-0.834,-1.12,2.77,-0.15
2022-12-08 18:20:06.9120,-0.044,-0.68,-0.838,-1.27,2.59,-0.72
2022-12-08 18:20:06.9230,-0.081,-0.716,-0.926,-1.22,2.77,-0.64
2022-12-08 18:20:06.9320,-0.144,-0.731,-1.076,-0.86,3.07,0.25
2022-12-08 18:20:06.9420,-0.157,-0.69,-1.224,-0.24,3.16,1.75
2022-12-08 18:20:06.9530,-0.117,-0.619,-1.34,-0.11,2.7,3.23
2022-12-08 18:20:06.9630,-0.09,-0.565,-1.397,-0.49,1.92,4.41
2022-12-08 18:20:06.9730,-0.078,-0.539,-1.389,-0.77,1.29,5.01
2022-12-08 18:20:06.9830,-0.083,-0.547,-1.333,-0.9,0.91,5.0
2022-12-08 18:20:06.9930,-0.106,-0.577,-1.221,-0.88,0.84,4.53
2022-12-08 18:20:07.0030,-0.117,-0.603,-1.103,-0.7,0.98,3.53
2022-12-08 18:20:07.0130,-0.106,-0.614,-0.968,-0.66,1.08,2.47
2022-12-08 18:20:07.0230,-0.1,-0.622,-0.823,-0.83,1.04,1.25
2022-12-08 18:20:07.0330,-0.1,-0.63,-0.721,-0.95,0.98,-0.08
2022-12-08 18:20:07.0430,-0.115,-0.625,-0.66,-1.03,0.97,-1.0
2022-12-08 18:20:07.0530,-0.166,-0.605,-0.631,-0.95,0.85,-1.53
2022-12-08 18:20:07.0630,-0.231,-0.582,-0.647,-0.53,0.62,-1.77
2022-12-08 18:20:07.0730,-0.288,-0.578,-0.683,0.03,0.37,-1.59
2022-12-08 18:20:07.0830,-0.313,-0.558,-0.705,0.51,0.34,-1.22
2022-12-08 18:20:07.0930,-0.315,-0.505,-0.697,0.67,0.16,-0.98
2022-12-08 18:20:07.1030,-0.333,-0.423,-0.607,0.62,-0.34,-1.05
2022-12-08 18:20:07.1130,-0.339,-0.332,-0.511,0.75,-1.12,-1.93
2022-12-08 18:20:07.1230,-0.291,-0.283,-0.505,0.76,-1.99,-2.89
2022-12-08 18:20:07.1330,-0.243,-0.268,-0.498,0.26,-2.43,-2.95
2022-12-08 18:20:07.1430,-0.214,-0.245,-0.458,-0.27,-2.53,-3.03
2022-12-08 18:20:07.1530,-0.177,-0.194,-0.411,-0.61,-2.7,-3.45
2022-12-08 18:20:07.1630,-0.122,-0.144,-0.371,-1.01,-3.13,-3.94
2022-12-08 18:20:07.1730,-0.081,-0.133,-0.351,-1.61,-3.53,-4.36
2022-12-08 18:20:07.1830,-0.017,-0.175,-0.342,-2.08,-3.52,-4.61
2022-12-08 18:20:07.1930,0.057,-0.236,-0.346,-2.79,-2.98,-4.74
2022-12-08 18:20:07.2030,0.122,-0.295,-0.37,-3.62,-2.26,-4.74
2022-12-08 18:20:07.2130,0.191,-0.358,-0.422,-4.38,-1.57,-4.51
2022-12-08 18:20:07.2240,0.138,-0.34,-0.462,-5.2,-0.87,-4.0
2022-12-08 18:20:07.2330,-0.033,-0.179,-0.443,-4.87,-1.0,-3.55
2022-12-08 18:20:07.2430,-0.143,-0.039,-0.383,-3.44,-2.55,-3.63
2022-12-08 18:20:07.2530,-0.196,0.011,-0.289,-2.63,-3.92,-4.09
2022-12-08 18:20:07.2630,-0.154,0.007,-0.216,-2.4,-4.4,-4.87
2022-12-08 18:20:07.2730,-0.091,-0.022,-0.158,-3.11,-4.34,-5.41
2022-12-08 18:20:07.2830,-0.088,-0.019,-0.112,-4.07,-4.02,-5.78
2022-12-08 18:20:07.2940,-0.165,0.034,-0.076,-4.45,-3.99,-6.02
2022-12-08 18:20:07.3030,-0.3,0.122,-0.041,-4.07,-4.41,-6.14
2022-12-08 18:20:07.3130,-0.416,0.219,-0.003,-3.13,-5.15,-6.22
2022-12-08 18:20:07.3240,-0.48,0.307,0.025,-2.38,-5.92,-6.33
2022-12-08 18:20:07.3330,-0.551,0.402,0.023,-2.13,-6.56,-6.34
2022-12-08 18:20:07.3430,-0.623,0.492,-0.016,-1.79,-7.2,-6.05
2022-12-08 18:20:07.3530,-0.68,0.592,-0.088,-1.43,-7.74,-5.42
2022-12-08 18:20:07.3640,-0.745,0.687,-0.191,-1.19,-8.31,-4.46
2022-12-08 18:20:07.3740,-0.891,0.767,-0.328,-0.83,-8.8,-3.22
2022-12-08 18:20:07.3840,-1.118,0.854,-0.428,0.35,-9.12,-1.63
2022-12-08 18:20:07.3940,-1.303,0.957,-0.426,2.37,-9.51,-0.41
2022-12-08 18:20:07.4040,-1.392,1.047,-0.367,4.0,-10.09,-0.16
2022-12-08 18:20:07.4140,-1.375,1.135,-0.321,4.71,-10.59,-0.43
2022-12-08 18:20:07.4240,-1.291,1.214,-0.329,4.4,-11.06,-0.56
2022-12-08 18:20:07.4340,-1.205,1.286,-0.405,3.45,-11.46,-0.14
2022-12-08 18:20:07.4440,-1.143,1.321,-0.502,2.52,-11.75,0.97
2022-12-08 18:20:07.4540,-1.18,1.361,-0.583,1.85,-11.65,2.28
2022-12-08 18:20:07.4640,-1.325,1.438,-0.653,2.2,-11.56,3.43
2022-12-08 18:20:07.4740,-1.523,1.527,-0.682,3.66,-11.82,4.46
2022-12-08 18:20:07.4840,-1.703,1.601,-0.681,5.67,-12.2,5.06
2022-12-08 18:20:07.4940,-1.828,1.627,-0.668,7.55,-12.45,5.35
2022-12-08 18:20:07.5040,-1.892,1.621,-0.649,8.91,-12.24,5.48
2022-12-08 18:20:07.5140,-1.898,1.589,-0.615,9.71,-11.75,5.53
2022-12-08 18:20:07.5240,-1.863,1.514,-0.587,9.96,-11.03,5.41
2022-12-08 18:20:07.5340,-1.786,1.412,-0.582,9.8,-9.92,5.31
2022-12-08 18:20:07.5440,-1.673,1.281,-0.611,9.26,-8.57,5.41
2022-12-08 18:20:07.5540,-1.547,1.135,-0.66,8.37,-6.96,5.82
2022-12-08 18:20:07.5640,-1.428,0.997,-0.713,7.35,-5.22,6.38
2022-12-08 18:20:07.5740,-1.327,0.888,-0.751,6.4,-3.59,6.95
2022-12-08 18:20:07.5840,-1.241,0.791,-0.759,5.62,-2.27,7.32
2022-12-08 18:20:07.5940,-1.157,0.705,-0.727,4.99,-1.09,7.36
2022-12-08 18:20:07.6040,-1.091,0.636,-0.652,4.37,-0.02,6.96
2022-12-08 18:20:07.6140,-1.06,0.585,-0.555,3.94,0.87,6.1
2022-12-08 18:20:07.6240,-1.034,0.54,-0.437,3.86,1.55,5.0
2022-12-08 18:20:07.6340,-0.997,0.505,-0.309,3.82,2.17,3.67
2022-12-08 18:20:07.6440,-0.942,0.475,-0.19,3.67,2.68,2.24
2022-12-08 18:20:07.6540,-0.88,0.461,-0.086,3.35,3.13,0.91
2022-12-08 18:20:07.6650,-0.811,0.43,-0.006,2.96,3.41,-0.26
2022-12-08 18:20:07.6750,-0.761,0.393,0.046,2.29,4.36,-1.78
2022-12-08 18:20:07.6860,-0.751,0.392,0.08,2.29,4.36,-1.78
2022-12-08 18:20:07.6940,-0.781,0.417,0.086,2.45,4.52,-2.19
2022-12-08 18:20:07.7050,-0.821,0.432,0.068,3.02,4.42,-2.31
2022-12-08 18:20:07.7150,-0.864,0.441,0.026,3.7,4.41,-2.18
2022-12-08 18:20:07.7250,-0.908,0.446,-0.031,4.41,4.47,-1.78
2022-12-08 18:20:07.7350,-0.952,0.45,-0.089,5.14,4.55,-1.21
2022-12-08 18:20:07.7450,-0.991,0.462,-0.138,5.87,4.63,-0.64
2022-12-08 18:20:07.7550,-1.008,0.523,-0.121,6.54,4.62,-0.14
2022-12-08 18:20:07.7650,-1.049,0.511,-0.114,6.98,4.12,-0.27
2022-12-08 18:20:07.7750,-1.172,0.467,-0.253,7.64,4.33,-0.3
2022-12-08 18:20:07.7850,-1.205,0.627,-0.324,9.09,4.82,1.09
2022-12-08 18:20:07.7950,-1.2,0.705,-0.315,9.63,3.31,1.82
2022-12-08 18:20:07.8050,-1.225,0.68,-0.311,9.79,2.59,1.74
2022-12-08 18:20:07.8150,-1.231,0.664,-0.316,10.23,2.88,1.71
2022-12-08 18:20:07.8250,-1.258,0.648,-0.305,10.47,3.07,1.78
2022-12-08 18:20:07.8350,-1.298,0.629,-0.3,10.88,3.25,1.68
2022-12-08 18:20:07.8450,-1.352,0.614,-0.307,11.39,3.46,1.66
2022-12-08 18:20:07.8550,-1.428,0.628,-0.322,12.0,3.62,1.75
2022-12-08 18:20:07.8650,-1.486,0.668,-0.352,12.78,3.5,1.94
2022-12-08 18:20:07.8750,-1.483,0.695,-0.391,13.32,3.1,2.29
2022-12-08 18:20:07.8850,-1.434,0.702,-0.436,13.21,2.84,2.73
2022-12-08 18:20:07.8950,-1.361,0.699,-0.472,12.61,2.75,3.22
2022-12-08 18:20:07.9050,-1.299,0.699,-0.505,11.73,2.76,3.62
2022-12-08 18:20:07.9150,-1.247,0.704,-0.527,10.94,2.73,3.98
2022-12-08 18:20:07.9250,-1.214,0.699,-0.532,10.24,2.65,4.21
2022-12-08 18:20:07.9350,-1.217,0.704,-0.518,9.69,2.64,4.24
2022-12-08 18:20:07.9450,-1.261,0.753,-0.488,9.49,2.54,4.07
2022-12-08 18:20:07.9550,-1.318,0.834,-0.44,9.66,1.97,3.73
2022-12-08 18:20:07.9650,-1.37,0.926,-0.395,9.92,1.08,3.21
2022-12-08 18:20:07.9750,-1.391,1.023,-0.362,10.11,0.06,2.71
2022-12-08 18:20:07.9850,-1.366,1.106,-0.343,9.96,-1.03,2.36
2022-12-08 18:20:07.9950,-1.318,1.158,-0.342,9.35,-2.0,2.16
2022-12-08 18:20:08.0050,-1.263,1.182,-0.347,8.49,-2.69,2.15
2022-12-08 18:20:08.0150,-1.217,1.199,-0.355,7.57,-3.13,2.23
2022-12-08 18:20:08.0260,-1.181,1.213,-0.358,6.74,-3.52,2.36
2022-12-08 18:20:08.0350,-1.145,1.218,-0.366,6.02,-3.9,2.45
2022-12-08 18:20:08.0450,-1.114,1.224,-0.384,5.3,-4.19,2.59
2022-12-08 18:20:08.0550,-1.079,1.236,-0.412,4.65,-4.52,2.84
2022-12-08 18:20:08.0660,-1.029,1.23,-0.434,3.98,-4.92,3.17
2022-12-08 18:20:08.0750,-0.972,1.192,-0.446,3.18,-5.15,3.43
2022-12-08 18:20:08.0860,-0.914,1.144,-0.449,2.34,-5.07,3.56
2022-12-08 18:20:08.0960,-0.85,1.099,-0.444,1.5,-4.9,3.57
2022-12-08 18:20:08.1050,-0.748,1.09,-0.444,0.63,-4.78,3.47
2022-12-08 18:20:08.1150,-0.716,1.024,-0.445,-0.58,-4.98,3.38
2022-12-08 18:20:08.1260,-0.742,0.945,-0.434,-1.08,-4.62,3.29
2022-12-08 18:20:08.1360,-0.765,0.908,-0.411,-0.99,-4.13,3.05
2022-12-08 18:20:08.1460,-0.754,0.907,-0.361,-0.92,-4.06,2.69
2022-12-08 18:20:08.1560,-0.723,0.91,-0.293,-1.17,-4.34,2.05
2022-12-08 18:20:08.1660,-0.702,0.909,-0.244,-1.6,-4.67,1.25
2022-12-08 18:20:08.1760,-0.69,0.918,-0.204,-1.93,-4.97,0.65
2022-12-08 18:20:08.1860,-0.679,0.921,-0.167,-2.16,-5.38,0.15
2022-12-08 18:20:08.1960,-0.669,0.921,-0.132,-2.38,-5.73,-0.3
2022-12-08 18:20:08.2060,-0.655,0.933,-0.09,-2.57,-6.06,-0.7
2022-12-08 18:20:08.2160,-0.621,0.944,-0.044,-2.81,-6.5,-1.16
2022-12-08 18:20:08.2260,-0.571,0.942,0.001,-3.22,-6.94,-1.63
2022-12-08 18:20:08.2360,-0.516,0.927,0.04,-3.78,-7.23,-2.06
2022-12-08 18:20:08.2460,-0.466,0.899,0.07,-4.38,-7.38,-2.43
2022-12-08 18:20:08.2560,-0.429,0.867,0.086,-4.93,-7.39,-2.68
2022-12-08 18:20:08.2660,-0.415,0.845,0.093,-5.34,-7.35,-2.8
2022-12-08 18:20:08.2760,-0.416,0.844,0.089,-5.52,-7.38,-2.81
2022-12-08 18:20:08.2860,-0.419,0.855,0.077,-5.53,-7.59,-2.72
2022-12-08 18:20:08.2960,-0.409,0.866,0.065,-5.53,-7.9,-2.55
2022-12-08 18:20:08.3060,-0.389,0.885,0.051,-5.65,-8.19,-2.38
2022-12-08 18:20:08.3160,-0.353,0.917,0.007,-5.85,-8.55,-2.2
2022-12-08 18:20:08.3260,-0.308,0.933,0.002,-6.21,-9.0,-1.73
2022-12-08 18:20:08.3360,-0.277,0.928,0.018,-6.66,-9.27,-1.65
2022-12-08 18:20:08.3460,-0.245,0.929,-0.0,-6.96,-9.31,-1.78
2022-12-08 18:20:08.3560,-0.222,0.928,-0.026,-7.28,-9.36,-1.58
2022-12-08 18:20:08.3660,-0.227,0.932,-0.046,-7.51,-9.35,-1.3
2022-12-08 18:20:08.3760,-0.272,0.96,-0.051,-7.47,-9.35,-1.09
2022-12-08 18:20:08.3860,-0.319,0.985,-0.046,-7.02,-9.54,-1.02
2022-12-08 18:20:08.3960,-0.333,0.97,-0.039,-6.57,-9.67,-1.06
2022-12-08 18:20:08.4060,-0.339,0.952,-0.04,-6.43,-9.39,-1.11
2022-12-08 18:20:08.4160,-0.365,0.956,-0.031,-6.38,-9.04,-1.09
2022-12-08 18:20:08.4260,-0.401,0.938,-0.031,-6.11,-8.87,-1.17
2022-12-08 18:20:08.4360,-0.451,0.909,-0.051,-5.74,-8.46,-1.17
2022-12-08 18:20:08.4460,-0.528,0.911,-0.068,-5.23,-7.91,-0.95
2022-12-08 18:20:08.4570,-0.608,0.931,-0.078,-4.44,-7.65,-0.79
2022-12-08 18:20:08.4660,-0.69,0.959,-0.074,-3.61,-7.55,-0.69
2022-12-08 18:20:08.4770,-0.778,1.02,-0.044,-2.75,-7.54,-0.72
2022-12-08 18:20:08.4860,-0.857,1.098,-0.001,-1.82,-7.83,-1.01
2022-12-08 18:20:08.4970,-0.921,1.171,0.039,-0.98,-8.31,-1.43
2022-12-08 18:20:08.5070,-0.959,1.214,0.068,-0.27,-8.71,-1.81
2022-12-08 18:20:08.5160,-0.982,1.236,0.076,0.2,-8.84,-2.08
2022-12-08 18:20:08.5270,-0.998,1.237,0.064,0.53,-8.74,-2.14
2022-12-08 18:20:08.5370,-1.023,1.212,0.028,0.81,-8.42,-1.99
2022-12-08 18:20:08.5470,-1.054,1.175,-0.029,1.2,-7.83,-1.6
2022-12-08 18:20:08.5570,-1.071,1.122,-0.094,1.65,-7.15,-0.99
2022-12-08 18:20:08.5670,-1.068,1.056,-0.164,1.98,-6.3,-0.31
2022-12-08 18:20:08.5780,-1.037,0.988,-0.233,2.13,-5.35,0.43
2022-12-08 18:20:08.5870,-0.994,0.918,-0.287,2.0,-4.38,1.15
2022-12-08 18:20:08.5970,-0.942,0.862,-0.32,1.76,-3.41,1.73
2022-12-08 18:20:08.6070,-0.891,0.802,-0.345,1.44,-2.6,2.09
2022-12-08 18:20:08.6170,-0.848,0.749,-0.352,1.13,-1.76,2.36
2022-12-08 18:20:08.6270,-0.82,0.708,-0.34,0.91,-0.99,2.45
2022-12-08 18:20:08.6370,-0.798,0.673,-0.321,0.84,-0.36,2.34
2022-12-08 18:20:08.6470,-0.787,0.635,-0.297,0.84,0.21,2.15
2022-12-08 18:20:08.6570,-0.791,0.594,-0.27,0.95,0.8,1.9
2022-12-08 18:20:08.6670,-0.804,0.552,-0.234,1.21,1.41,1.63
2022-12-08 18:20:08.6770,-0.824,0.523,-0.187,1.57,2.01,1.26
2022-12-08 18:20:08.6870,-0.848,0.505,-0.139,1.99,2.49,0.78
2022-12-08 18:20:08.6970,-0.87,0.505,-0.102,2.44,2.83,0.3
2022-12-08 18:20:08.7070,-0.878,0.509,-0.078,2.87,2.98,-0.06
2022-12-08 18:20:08.7170,-0.88,0.514,-0.072,3.15,3.09,-0.29
2022-12-08 18:20:08.7270,-0.887,0.525,-0.082,3.36,3.17,-0.32
2022-12-08 18:20:08.7370,-0.892,0.539,-0.094,3.63,3.19,-0.19
2022-12-08 18:20:08.7470,-0.896,0.556,-0.102,3.87,3.17,-0.02
2022-12-08 18:20:08.7570,-0.902,0.564,-0.115,4.09,3.11,0.11
2022-12-08 18:20:08.7670,-0.91,0.567,-0.137,4.34,3.14,0.31
2022-12-08 18:20:08.7770,-0.94,0.582,-0.156,4.61,3.22,0.61
2022-12-08 18:20:08.7870,-1.005,0.619,-0.182,5.1,3.16,0.88
2022-12-08 18:20:08.7970,-1.09,0.686,-0.218,5.91,2.9,1.24
2022-12-08 18:20:08.8080,-1.168,0.755,-0.255,6.93,2.32,1.69
2022-12-08 18:20:08.8180,-1.222,0.802,-0.289,7.85,1.71,2.17
2022-12-08 18:20:08.8280,-1.249,0.826,-0.324,8.54,1.31,2.6
2022-12-08 18:20:08.8380,-1.261,0.828,-0.357,8.94,1.13,3.06
2022-12-08 18:20:08.8480,-1.271,0.821,-0.388,9.19,1.16,3.49
2022-12-08 18:20:08.8580,-1.28,0.805,-0.415,9.42,1.26,3.9
2022-12-08 18:20:08.8680,-1.31,0.782,-0.442,9.62,1.46,4.26
2022-12-08 18:20:08.8780,-1.377,0.798,-0.47,10.0,1.71,4.62
2022-12-08 18:20:08.8880,-1.431,0.826,-0.511,10.74,1.57,4.98
2022-12-08 18:20:08.8980,-1.439,0.827,-0.535,11.32,1.31,5.46
2022-12-08 18:20:08.9080,-1.377,0.775,-0.579,11.42,1.3,5.76
2022-12-08 18:20:08.9180,-1.295,0.707,-0.625,10.8,1.8,6.23
2022-12-08 18:20:08.9280,-1.207,0.647,-0.653,9.96,2.46,6.68
2022-12-08 18:20:08.9380,-1.132,0.606,-0.65,9.05,3.03,6.92
2022-12-08 18:20:08.9480,-1.1,0.603,-0.608,8.24,3.43,6.81
2022-12-08 18:20:08.9580,-1.119,0.655,-0.537,7.85,3.43,6.26
2022-12-08 18:20:08.9680,-1.171,0.731,-0.454,7.94,2.9,5.39
2022-12-08 18:20:08.9780,-1.224,0.8,-0.384,8.34,2.12,4.37
2022-12-08 18:20:08.9880,-1.275,0.869,-0.308,8.74,1.4,3.46
2022-12-08 18:20:08.9990,-1.307,0.928,-0.219,9.1,0.66,2.48
2022-12-08 18:20:09.0080,-1.306,0.953,-0.142,9.24,-0.01,1.39
2022-12-08 18:20:09.0180,-1.299,0.973,-0.087,9.03,-0.35,0.45
2022-12-08 18:20:09.0280,-1.303,1.008,-0.058,8.74,-0.66,-0.22
2022-12-08 18:20:09.0380,-1.312,1.051,-0.071,8.52,-1.13,-0.59
2022-12-08 18:20:09.0480,-1.31,1.085,-0.124,8.34,-1.69,-0.51
2022-12-08 18:20:09.0580,-1.296,1.098,-0.2,8.04,-2.18,0.02
2022-12-08 18:20:09.0680,-1.259,1.094,-0.282,7.6,-2.48,0.82
2022-12-08 18:20:09.0780,-1.204,1.067,-0.355,6.94,-2.62,1.69
2022-12-08 18:20:09.0880,-1.146,1.032,-0.423,6.1,-2.56,2.48
2022-12-08 18:20:09.0980,-1.092,1.002,-0.484,5.24,-2.43,3.2
2022-12-08 18:20:09.1090,-1.044,0.975,-0.524,4.41,-2.36,3.82
2022-12-08 18:20:09.1180,-0.996,0.953,-0.54,3.65,-2.36,4.21
2022-12-08 18:20:09.1280,-0.951,0.935,-0.533,2.89,-2.43,4.32
2022-12-08 18:20:09.1380,-0.904,0.938,-0.49,2.17,-2.55,4.15
2022-12-08 18:20:09.1480,-0.857,0.937,-0.426,1.44,-2.9,3.61
2022-12-08 18:20:09.1590,-0.806,0.935,-0.356,0.72,-3.24,2.82
2022-12-08 18:20:09.1680,-0.752,0.938,-0.292,-0.01,-3.58,1.95
2022-12-08 18:20:09.1780,-0.719,0.953,-0.229,-0.75,-3.99,1.14
2022-12-08 18:20:09.1880,-0.699,0.972,-0.168,-1.27,-4.52,0.34
2022-12-08 18:20:09.1980,-0.678,0.98,-0.123,-1.64,-5.09,-0.43
2022-12-08 18:20:09.2090,-0.649,0.985,-0.084,-2.01,-5.56,-1.02
2022-12-08 18:20:09.2180,-0.613,0.985,-0.052,-2.44,-6.01,-1.53
2022-12-08 18:20:09.2290,-0.567,0.984,-0.024,-2.92,-6.42,-1.93
2022-12-08 18:20:09.2390,-0.52,0.975,-0.006,-3.49,-6.8,-2.26
2022-12-08 18:20:09.2490,-0.477,0.959,0.001,-4.05,-7.1,-2.47
2022-12-08 18:20:09.2590,-0.434,0.932,0.006,-4.57,-7.31,-2.54
2022-12-08 18:20:09.2690,-0.391,0.898,0.005,-5.56,-7.39,-2.53
2022-12-08 18:20:09.2800,-0.351,0.869,0.005,-5.56,-7.39,-2.53
2022-12-08 18:20:09.2890,-0.33,0.838,0.003,-6.01,-7.4,-2.47
2022-12-08 18:20:09.2990,-0.33,0.822,0.001,-6.25,-7.36,-2.4
2022-12-08 18:20:09.3090,-0.335,0.816,-0.004,-6.28,-7.45,-2.33
2022-12-08 18:20:09.3190,-0.345,0.82,-0.008,-6.25,-7.6,-2.24
2022-12-08 18:20:09.3290,-0.339,0.848,-0.011,-6.17,-7.83,-2.18
2022-12-08 18:20:09.3390,-0.311,0.876,-0.018,-6.23,-8.27,-2.13
2022-12-08 18:20:09.3490,-0.272,0.884,-0.02,-6.51,-8.68,-2.06
2022-12-08 18:20:09.3590,-0.234,0.885,-0.021,-6.89,-8.86,-2.03
2022-12-08 18:20:09.3690,-0.213,0.889,-0.03,-7.27,-8.92,-2.02
2022-12-08 18:20:09.3790,-0.214,0.888,-0.055,-7.47,-8.98,-1.92
2022-12-08 18:20:09.3890,-0.249,0.904,-0.098,-7.46,-8.95,-1.66
2022-12-08 18:20:09.3990,-0.324,0.959,-0.151,-7.13,-9.04,-1.22
2022-12-08 18:20:09.4090,-0.412,0.999,-0.198,-6.4,-9.47,-0.68
2022-12-08 18:20:09.4190,-0.46,0.992,-0.221,-5.54,-9.74,-0.19
2022-12-08 18:20:09.4290,-0.476,0.949,-0.224,-5.07,-9.51,0.08
2022-12-08 18:20:09.4390,-0.515,0.917,-0.22,-4.92,-8.91,0.14
2022-12-08 18:20:09.4490,-0.568,0.904,-0.213,-4.53,-8.39,0.13
2022-12-08 18:20:09.4590,-0.622,0.882,-0.206,-4.0,-8.05,0.11
2022-12-08 18:20:09.4690,-0.691,0.877,-0.204,-3.46,-7.6,0.08
2022-12-08 18:20:09.4790,-0.778,0.902,-0.204,-2.76,-7.31,0.09
2022-12-08 18:20:09.4890,-0.861,0.942,-0.2,-1.88,-7.32,0.12
2022-12-08 18:20:09.4990,-0.914,0.995,-0.183,-1.03,-7.48,0.12
2022-12-08 18:20:09.5100,-0.94,1.049,-0.147,-0.47,-7.76,-0.03
2022-12-08 18:20:09.5190,-0.947,1.083,-0.104,-0.16,-8.05,-0.35
2022-12-08 18:20:09.5290,-0.892,1.101,-0.024,-0.04,-8.13,-0.76
2022-12-08 18:20:09.5390,-0.89,1.11,0.03,-0.5,-8.04,-1.52
2022-12-08 18:20:09.5490,-0.925,1.105,0.015,-0.43,-7.83,-2.03
2022-12-08 18:20:09.5590,-0.948,1.076,0.005,0.01,-7.46,-1.85
2022-12-08 18:20:09.5700,-0.967,1.033,-0.028,0.36,-6.85,-1.69
2022-12-08 18:20:09.5790,-0.967,0.985,-0.094,0.69,-6.08,-1.32
2022-12-08 18:20:09.5900,-0.944,0.935,-0.186,0.84,-5.27,-0.59
2022-12-08 18:20:09.6000,-0.914,0.882,-0.276,0.79,-4.44,0.39
2022-12-08 18:20:09.6100,-0.881,0.834,-0.349,0.67,-3.59,1.35
2022-12-08 18:20:09.6200,-0.841,0.787,-0.401,0.55,-2.79,2.14
2022-12-08 18:20:09.6300,-0.801,0.741,-0.433,0.35,-2.02,2.72
2022-12-08 18:20:09.6400,-0.773,0.701,-0.453,0.19,-1.27,3.08
2022-12-08 18:20:09.6500,-0.768,0.669,-0.454,0.15,-0.58,3.3
2022-12-08 18:20:09.6600,-0.778,0.638,-0.423,0.35,0.02,3.31
2022-12-08 18:20:09.6700,-0.798,0.604,-0.374,0.71,0.6,3.0
2022-12-08 18:20:09.6800,-0.821,0.574,-0.319,1.17,1.19,2.47
2022-12-08 18:20:09.6900,-0.847,0.551,-0.25,1.67,1.72,1.89
2022-12-08 18:20:09.7000,-0.87,0.533,-0.183,2.2,2.15,1.15
2022-12-08 18:20:09.7100,-0.893,0.517,-0.125,2.7,2.54,0.43
2022-12-08 18:20:09.7200,-0.91,0.519,-0.077,3.19,2.87,-0.2
2022-12-08 18:20:09.7300,-0.917,0.52,-0.043,3.61,3.03,-0.72
2022-12-08 18:20:09.7400,-0.931,0.521,-0.026,4.31,3.29,-1.28
2022-12-08 18:20:09.7510,-0.951,0.529,-0.026,4.31,3.29,-1.28
2022-12-08 18:20:09.7600,-0.969,0.535,-0.045,4.74,3.35,-1.28
2022-12-08 18:20:09.7700,-0.981,0.532,-0.075,5.14,3.41,-1.09
2022-12-08 18:20:09.7800,-0.995,0.528,-0.111,5.47,3.54,-0.76
2022-12-08 18:20:09.7900,-1.023,0.538,-0.14,5.81,3.68,-0.39
2022-12-08 18:20:09.8000,-1.071,0.561,-0.15,6.28,3.67,-0.07
2022-12-08 18:20:09.8100,-1.127,0.592,-0.142,6.92,3.52,0.06
2022-12-08 18:20:09.8200,-1.173,0.626,-0.13,7.62,3.28,0.01
2022-12-08 18:20:09.8300,-1.213,0.668,-0.119,8.21,3.0,-0.06
2022-12-08 18:20:09.8400,-1.244,0.713,-0.113,8.71,2.64,-0.1
2022-12-08 18:20:09.8500,-1.233,0.756,-0.138,9.1,2.23,-0.09
2022-12-08 18:20:09.8600,-1.209,0.791,-0.18,9.06,1.85,0.25
2022-12-08 18:20:09.8700,-1.187,0.808,-0.232,8.87,1.53,0.77
2022-12-08 18:20:09.8800,-1.157,0.806,-0.296,8.69,1.38,1.39
2022-12-08 18:20:09.8900,-1.134,0.796,-0.358,8.43,1.42,2.14
2022-12-08 18:20:09.9000,-1.15,0.806,-0.408,8.21,1.54,2.87
2022-12-08 18:20:09.9100,-1.21,0.857,-0.442,8.37,1.44,3.47
2022-12-08 18:20:09.9200,-1.242,0.925,-0.468,8.94,0.95,3.9
2022-12-08 18:20:09.9300,-1.181,0.944,-0.502,9.22,0.27,4.24
2022-12-08 18:20:09.9400,-1.074,0.912,-0.542,8.59,0.07,4.64
2022-12-08 18:20:09.9500,-0.984,0.865,-0.583,7.49,0.37,5.06
2022-12-08 18:20:09.9600,-0.944,0.809,-0.603,6.59,0.83,5.46
2022-12-08 18:20:09.9700,-0.957,0.748,-0.582,6.17,1.37,5.6
2022-12-08 18:20:09.9810,-1.03,0.709,-0.53,6.29,1.96,5.29
2022-12-08 18:20:09.9900,-1.142,0.712,-0.457,6.99,2.33,4.65
2022-12-08 18:20:10.0010,-1.266,0.754,-0.369,8.05,2.27,3.76
2022-12-08 18:20:10.0110,-1.36,0.803,-0.276,9.2,1.82,2.71
2022-12-08 18:20:10.0210,-1.388,0.839,-0.191,10.01,1.28,1.62
2022-12-08 18:20:10.0310,-1.394,0.866,-0.116,10.12,0.85,0.62
2022-12-08 18:20:10.0410,-1.381,0.894,-0.062,9.98,0.48,-0.25
2022-12-08 18:20:10.0510,-1.345,0.934,-0.056,9.61,0.09,-0.87
2022-12-08 18:20:10.0610,-1.31,0.974,-0.103,8.98,-0.43,-0.97
2022-12-08 18:20:10.0710,-1.289,1.009,-0.182,8.35,-0.97,-0.5
2022-12-08 18:20:10.0810,-1.268,1.041,-0.27,7.84,-1.48,0.33
2022-12-08 18:20:10.0910,-1.241,1.063,-0.342,7.31,-1.96,1.27
2022-12-08 18:20:10.1010,-1.197,1.062,-0.406,6.74,-2.37,2.06
2022-12-08 18:20:10.1110,-1.146,1.053,-0.461,5.98,-2.58,2.76
2022-12-08 18:20:10.1210,-1.09,1.033,-0.5,5.16,-2.72,3.37
2022-12-08 18:20:10.1310,-1.044,1.005,-0.523,4.3,-2.78,3.79
2022-12-08 18:20:10.1410,-0.994,0.977,-0.521,3.53,-2.79,4.02
2022-12-08 18:20:10.1510,-0.938,0.954,-0.494,2.75,-2.81,3.96
2022-12-08 18:20:10.1610,-0.874,0.929,-0.447,1.91,-2.91,3.62
2022-12-08 18:20:10.1710,-0.812,0.914,-0.383,1.01,-3.0,3.05
2022-12-08 18:20:10.1810,-0.779,0.911,-0.329,-0.4,-3.55,1.6
2022-12-08 18:20:10.1930,-0.752,0.921,-0.284,-0.4,-3.55,1.6
2022-12-08 18:20:10.2010,-0.714,0.926,-0.246,-0.87,-4.02,1.01
2022-12-08 18:20:10.2120,-0.676,0.926,-0.211,-1.44,-4.46,0.49
2022-12-08 18:20:10.2210,-0.643,0.93,-0.173,-1.98,-4.85,0.0
2022-12-08 18:20:10.2320,-0.61,0.93,-0.137,-2.91,-5.69,-0.97
2022-12-08 18:20:10.2430,-0.578,0.931,-0.1,-2.91,-5.69,-0.97
2022-12-08 18:20:10.2510,-0.544,0.926,-0.074,-3.35,-6.09,-1.4
2022-12-08 18:20:10.2610,-0.5,0.919,-0.057,-3.8,-6.44,-1.71
2022-12-08 18:20:10.2710,-0.447,0.908,-0.036,-4.33,-6.76,-1.89
2022-12-08 18:20:10.2810,-0.403,0.886,-0.011,-4.93,-7.02,-2.08
2022-12-08 18:20:10.2910,-0.372,0.869,0.012,-5.44,-7.15,-2.27
2022-12-08 18:20:10.3010,-0.348,0.853,0.021,-5.81,-7.31,-2.44
2022-12-08 18:20:10.3120,-0.336,0.832,0.024,-6.09,-7.43,-2.46
2022-12-08 18:20:10.3210,-0.333,0.815,0.016,-6.25,-7.49,-2.41
2022-12-08 18:20:10.3320,-0.333,0.803,0.004,-6.31,-7.55,-2.25
2022-12-08 18:20:10.3420,-0.344,0.809,-0.003,-6.34,-7.63,-2.07
2022-12-08 18:20:10.3510,-0.35,0.838,-0.003,-6.24,-7.87,-1.94
2022-12-08 18:20:10.3620,-0.343,0.875,-0.0,-6.19,-8.3,-1.89
2022-12-08 18:20:10.3720,-0.326,0.913,0.006,-6.26,-8.79,-1.88
2022-12-08 18:20:10.3820,-0.306,0.946,0.006,-6.44,-9.25,-1.9
2022-12-08 18:20:10.3920,-0.283,0.956,-0.011,-6.64,-9.62,-1.86
2022-12-08 18:20:10.4020,-0.284,0.963,-0.04,-6.87,-9.73,-1.67
2022-12-08 18:20:10.4120,-0.342,0.999,-0.074,-6.87,-9.75,-1.36
2022-12-08 18:20:10.4220,-0.424,1.057,-0.097,-6.3,-10.03,-1.0
2022-12-08 18:20:10.4320,-0.461,1.082,-0.113,-5.51,-10.49,-0.74
2022-12-08 18:20:10.4420,-0.463,1.059,-0.129,-5.15,-10.58,-0.55
2022-12-08 18:20:10.4520,-0.476,1.043,-0.145,-5.14,-10.18,-0.37
2022-12-08 18:20:10.4620,-0.494,1.044,-0.16,-5.01,-9.8,-0.19
2022-12-08 18:20:10.4720,-0.509,1.036,-0.187,-4.82,-9.57,-0.01
2022-12-08 18:20:10.4820,-0.545,1.036,-0.233,-4.65,-9.22,0.28
2022-12-08 18:20:10.4920,-0.606,1.058,-0.278,-4.27,-8.92,0.76
2022-12-08 18:20:10.5020,-0.689,1.113,-0.305,-3.63,-8.81,1.24
2022-12-08 18:20:10.5120,-0.783,1.18,-0.311,-2.76,-9.02,1.54
2022-12-08 18:20:10.5220,-0.877,1.244,-0.302,-1.77,-9.34,1.63
2022-12-08 18:20:10.5320,-0.957,1.29,-0.272,-0.75,-9.61,1.56
2022-12-08 18:20:10.5420,-1.021,1.308,-0.23,0.13,-9.69,1.29
2022-12-08 18:20:10.5520,-1.072,1.303,-0.193,0.88,-9.5,0.91
2022-12-08 18:20:10.5620,-1.122,1.27,-0.163,1.53,-9.07,0.56
2022-12-08 18:20:10.5720,-1.149,1.214,-0.143,2.18,-8.37,0.29
2022-12-08 18:20:10.5820,-1.143,1.123,-0.14,2.63,-7.44,0.12
2022-12-08 18:20:10.5920,-1.112,1.013,-0.157,2.77,-6.19,0.11
2022-12-08 18:20:10.6020,-1.073,0.915,-0.197,2.67,-4.76,0.31
2022-12-08 18:20:10.6120,-1.02,0.829,-0.247,2.49,-3.47,0.73
2022-12-08 18:20:10.6220,-0.957,0.753,-0.296,2.19,-2.32,1.25
2022-12-08 18:20:10.6320,-0.897,0.687,-0.339,1.79,-1.29,1.75
2022-12-08 18:20:10.6420,-0.844,0.622,-0.378,1.42,-0.37,2.18
2022-12-08 18:20:10.6520,-0.796,0.568,-0.392,1.13,0.52,2.55
2022-12-08 18:20:10.6620,-0.759,0.534,-0.365,0.89,1.28,2.65
2022-12-08 18:20:10.6720,-0.738,0.52,-0.311,0.76,1.83,2.33
2022-12-08 18:20:10.6820,-0.729,0.506,-0.248,0.8,2.18,1.73
2022-12-08 18:20:10.6920,-0.729,0.487,-0.18,0.96,2.51,1.02
2022-12-08 18:20:10.7020,-0.731,0.474,-0.114,1.21,2.88,0.27
2022-12-08 18:20:10.7130,-0.741,0.469,-0.05,1.49,3.18,-0.47
2022-12-08 18:20:10.7230,-0.764,0.465,0.005,1.84,3.4,-1.18
2022-12-08 18:20:10.7320,-0.792,0.474,0.041,2.31,3.58,-1.78
2022-12-08 18:20:10.7430,-0.812,0.488,0.059,2.84,3.64,-2.18
2022-12-08 18:20:10.7520,-0.832,0.503,0.058,3.27,3.64,-2.38
2022-12-08 18:20:10.7630,-0.87,0.53,0.045,3.71,3.62,-2.36
2022-12-08 18:20:10.7730,-0.916,0.569,0.02,4.29,3.47,-2.21
2022-12-08 18:20:10.7830,-0.952,0.604,-0.023,5.51,2.96,-1.42
2022-12-08 18:20:10.7940,-0.984,0.629,-0.066,5.51,2.96,-1.42
2022-12-08 18:20:10.8030,-1.02,0.651,-0.101,6.01,2.8,-0.92
2022-12-08 18:20:10.8130,-1.079,0.678,-0.123,6.55,2.67,-0.5
2022-12-08 18:20:10.8230,-1.143,0.725,-0.133,7.28,2.48,-0.18
2022-12-08 18:20:10.8330,-1.199,0.776,-0.146,8.05,2.08,0.01
2022-12-08 18:20:10.8430,-1.238,0.831,-0.173,8.72,1.64,0.27
2022-12-08 18:20:10.8530,-1.256,0.881,-0.214,9.2,1.15,0.67
2022-12-08 18:20:10.8630,-1.249,0.917,-0.265,9.45,0.7,1.21
2022-12-08 18:20:10.8730,-1.227,0.94,-0.322,9.44,0.37,1.87
2022-12-08 18:20:10.8830,-1.196,0.951,-0.386,9.27,0.17,2.6
2022-12-08 18:20:10.8930,-1.171,0.956,-0.446,9.0,0.08,3.38
2022-12-08 18:20:10.9030,-1.176,0.973,-0.498,8.78,0.04,4.13
2022-12-08 18:20:10.9130,-1.203,1.011,-0.538,8.84,-0.12,4.79
2022-12-08 18:20:10.9230,-1.199,1.038,-0.573,9.1,-0.49,5.31
2022-12-08 18:20:10.9330,-1.142,1.016,-0.608,9.05,-0.75,5.75
2022-12-08 18:20:10.9430,-1.053,0.946,-0.647,8.49,-0.55,6.17
2022-12-08 18:20:10.9530,-0.975,0.858,-0.679,7.6,0.14,6.59
2022-12-08 18:20:10.9630,-0.949,0.786,-0.698,6.83,1.0,6.9
2022-12-08 18:20:10.9730,-0.989,0.745,-0.683,6.58,1.7,7.03
2022-12-08 18:20:10.9830,-1.053,0.733,-0.626,6.96,2.11,6.77
2022-12-08 18:20:10.9930,-1.109,0.727,-0.54,7.57,2.22,6.06
2022-12-08 18:20:11.0030,-1.175,0.74,-0.444,8.08,2.27,5.01
2022-12-08 18:20:11.0130,-1.232,0.775,-0.342,8.68,2.11,3.85
2022-12-08 18:20:11.0230,-1.265,0.805,-0.234,9.14,1.73,2.61
2022-12-08 18:20:11.0330,-1.273,0.824,-0.142,9.33,1.37,1.32
2022-12-08 18:20:11.0430,-1.271,0.839,-0.072,9.25,1.1,0.2
2022-12-08 18:20:11.0540,-1.276,0.865,-0.029,9.02,0.85,-0.65
2022-12-08 18:20:11.0630,-1.308,0.911,-0.01,8.83,0.48,-1.2
2022-12-08 18:20:11.0730,-1.361,0.986,-0.035,8.86,-0.1,-1.45
2022-12-08 18:20:11.0830,-1.377,1.057,-0.113,9.08,-0.98,-1.21
2022-12-08 18:20:11.0930,-1.362,1.106,-0.202,8.9,-1.84,-0.41
2022-12-08 18:20:11.1030,-1.319,1.138,-0.284,8.4,-2.51,0.54
2022-12-08 18:20:11.1140,-1.248,1.14,-0.365,7.62,-3.03,1.44
2022-12-08 18:20:11.1240,-1.174,1.116,-0.44,6.56,-3.28,2.34
2022-12-08 18:20:11.1340,-1.101,1.09,-0.497,5.48,-3.3,3.16
2022-12-08 18:20:11.1440,-1.041,1.066,-0.535,4.43,-3.32,3.78
2022-12-08 18:20:11.1540,-0.98,1.032,-0.552,3.5,-3.39,4.17
2022-12-08 18:20:11.1640,-0.921,1.003,-0.541,2.58,-3.38,4.31
2022-12-08 18:20:11.1740,-0.869,0.99,-0.505,1.71,-3.43,4.11
2022-12-08 18:20:11.1840,-0.81,0.978,-0.454,0.92,-3.66,3.63
2022-12-08 18:20:11.1940,-0.759,0.973,-0.39,0.08,-3.91,2.96
2022-12-08 18:20:11.2040,-0.717,0.969,-0.333,-0.64,-4.26,2.13
2022-12-08 18:20:11.2140,-0.672,0.965,-0.281,-1.27,-4.62,1.38
2022-12-08 18:20:11.2240,-0.632,0.961,-0.219,-1.89,-4.99,0.67
2022-12-08 18:20:11.2340,-0.596,0.96,-0.154,-2.45,-5.37,-0.11
2022-12-08 18:20:11.2440,-0.569,0.956,-0.094,-2.94,-5.78,-0.89
2022-12-08 18:20:11.2540,-0.547,0.953,-0.045,-3.35,-6.16,-1.59
2022-12-08 18:20:11.2640,-0.521,0.946,-0.004,-3.69,-6.55,-2.13
2022-12-08 18:20:11.2740,-0.493,0.942,0.039,-4.06,-6.89,-2.55
2022-12-08 18:20:11.2840,-0.47,0.949,0.081,-4.43,-7.26,-2.95
2022-12-08 18:20:11.2940,-0.456,0.967,0.108,-4.74,-7.71,-3.3
2022-12-08 18:20:11.3040,-0.447,0.983,0.116,-4.96,-8.24,-3.48
2022-12-08 18:20:11.3140,-0.433,0.998,0.108,-5.11,-8.72,-3.45
2022-12-08 18:20:11.3240,-0.423,1.021,0.097,-5.3,-9.18,-3.25
2022-12-08 18:20:11.3340,-0.418,1.053,0.093,-5.44,-9.67,-3.03
2022-12-08 18:20:11.3440,-0.4,1.086,0.086,-5.52,-10.22,-2.88
2022-12-08 18:20:11.3540,-0.367,1.092,0.07,-5.72,-10.73,-2.7
2022-12-08 18:20:11.3640,-0.348,1.095,0.043,-6.05,-10.95,-2.45
2022-12-08 18:20:11.3740,-0.354,1.107,0.011,-6.25,-11.09,-2.1
2022-12-08 18:20:11.3850,-0.388,1.132,-0.028,-5.87,-11.51,-1.28
2022-12-08 18:20:11.3960,-0.439,1.162,-0.074,-5.87,-11.51,-1.28
2022-12-08 18:20:11.4040,-0.469,1.158,-0.128,-5.39,-11.77,-0.78
2022-12-08 18:20:11.4150,-0.494,1.131,-0.183,-5.1,-11.64,-0.23
2022-12-08 18:20:11.4240,-0.525,1.103,-0.235,-4.86,-11.25,0.33
2022-12-08 18:20:11.4350,-0.556,1.078,-0.275,-4.56,-10.8,0.86
2022-12-08 18:20:11.4450,-0.598,1.068,-0.304,-4.25,-10.37,1.26
2022-12-08 18:20:11.4550,-0.641,1.076,-0.329,-3.83,-10.04,1.56
2022-12-08 18:20:11.4650,-0.665,1.076,-0.348,-3.4,-9.89,1.8
2022-12-08 18:20:11.4740,-0.691,1.075,-0.352,-3.15,-9.65,2.0
2022-12-08 18:20:11.4850,-0.724,1.091,-0.322,-2.87,-9.38,2.06
2022-12-08 18:20:11.4950,-0.759,1.113,-0.266,-2.51,-9.26,1.78
2022-12-08 18:20:11.5050,-0.795,1.122,-0.215,-2.11,-9.19,1.25
2022-12-08 18:20:11.5150,-0.826,1.115,-0.172,-1.71,-8.97,0.76
2022-12-08 18:20:11.5250,-0.865,1.093,-0.135,-1.33,-8.58,0.36
2022-12-08 18:20:11.5350,-0.908,1.058,-0.111,-0.86,-8.03,0.0
2022-12-08 18:20:11.5450,-0.957,1.012,-0.097,-0.33,-7.34,-0.23
2022-12-08 18:20:11.5550,-1.001,0.961,-0.087,0.27,-6.55,-0.37
2022-12-08 18:20:11.5650,-1.03,0.907,-0.083,0.83,-5.72,-0.47
2022-12-08 18:20:11.5750,-1.033,0.85,-0.081,1.26,-4.87,-0.51
2022-12-08 18:20:11.5850,-1.009,0.788,-0.082,1.33,-3.14,-0.53
2022-12-08 18:20:11.5960,-0.962,0.74,-0.092,1.33,-3.14,-0.53
2022-12-08 18:20:11.6050,-0.896,0.706,-0.106,1.01,-2.42,-0.43
2022-12-08 18:20:11.6150,-0.825,0.686,-0.13,0.49,-1.85,-0.29
2022-12-08 18:20:11.6250,-0.755,0.678,-0.161,-0.07,-1.45,-0.04
2022-12-08 18:20:11.6350,-0.692,0.671,-0.192,-0.63,-1.17,0.27
2022-12-08 18:20:11.6450,-0.634,0.671,-0.223,-1.1,-0.9,0.58
2022-12-08 18:20:11.6550,-0.579,0.659,-0.247,-1.52,-0.7,0.89
2022-12-08 18:20:11.6650,-0.546,0.637,-0.265,-1.91,-0.37,1.14
2022-12-08 18:20:11.6750,-0.534,0.615,-0.275,-2.05,0.06,1.32
2022-12-08 18:20:11.6850,-0.54,0.593,-0.284,-1.98,0.48,1.41
2022-12-08 18:20:11.6950,-0.551,0.569,-0.287,-1.72,0.92,1.51
2022-12-08 18:20:11.7050,-0.564,0.547,-0.283,-1.39,1.37,1.53
2022-12-08 18:20:11.7150,-0.585,0.532,-0.267,-1.04,1.8,1.49
2022-12-08 18:20:11.7250,-0.606,0.521,-0.243,-0.6,2.15,1.34
2022-12-08 18:20:11.7360,-0.632,0.51,-0.219,-0.16,2.46,1.1
2022-12-08 18:20:11.7450,-0.661,0.51,-0.197,0.34,2.76,0.86
2022-12-08 18:20:11.7550,-0.687,0.516,-0.176,0.87,2.94,0.64
2022-12-08 18:20:11.7650,-0.721,0.526,-0.15,1.38,3.05,0.44
2022-12-08 18:20:11.7750,-0.766,0.548,-0.126,1.97,3.11,0.19
2022-12-08 18:20:11.7850,-0.816,0.578,-0.107,2.66,3.05,-0.04
2022-12-08 18:20:11.7950,-0.863,0.605,-0.096,3.4,2.9,-0.22
2022-12-08 18:20:11.8060,-0.906,0.634,-0.086,4.11,2.76,-0.32
2022-12-08 18:20:11.8160,-0.938,0.663,-0.075,4.77,2.6,-0.4
2022-12-08 18:20:11.8250,-0.97,0.682,-0.069,5.32,2.42,-0.49
2022-12-08 18:20:11.8360,-1.02,0.703,-0.062,5.88,2.34,-0.53
2022-12-08 18:20:11.8460,-1.075,0.726,-0.054,6.6,2.23,-0.57
2022-12-08 18:20:11.8560,-1.135,0.742,-0.047,7.37,2.08,-0.61
2022-12-08 18:20:11.8660,-1.193,0.742,-0.045,8.18,2.01,-0.63
2022-12-08 18:20:11.8760,-1.229,0.734,-0.061,8.95,2.08,-0.58
2022-12-08 18:20:11.8860,-1.256,0.724,-0.086,9.49,2.22,-0.35
2022-12-08 18:20:11.8960,-1.274,0.717,-0.119,9.92,2.36,0.01
2022-12-08 18:20:11.9060,-1.28,0.711,-0.162,10.22,2.48,0.46
2022-12-08 18:20:11.9160,-1.277,0.707,-0.222,10.38,2.57,1.04
2022-12-08 18:20:11.9260,-1.286,0.718,-0.288,10.43,2.63,1.8
2022-12-08 18:20:11.9360,-1.329,0.771,-0.348,10.56,2.54,2.62
2022-12-08 18:20:11.9460,-1.334,0.83,-0.412,10.98,2.02,3.39
2022-12-08 18:20:11.9560,-1.255,0.833,-0.493,11.01,1.44,4.19
2022-12-08 18:20:11.9660,-1.153,0.803,-0.574,10.19,1.4,5.15
2022-12-08 18:20:11.9760,-1.069,0.768,-0.649,9.12,1.67,6.09
2022-12-08 18:20:11.9860,-0.996,0.728,-0.703,8.23,1.99,6.92
2022-12-08 18:20:11.9960,-0.967,0.696,-0.722,7.45,2.36,7.49
2022-12-08 18:20:12.0060,-1.005,0.696,-0.702,7.09,2.67,7.67
2022-12-08 18:20:12.0160,-1.074,0.729,-0.639,7.39,2.65,7.39
2022-12-08 18:20:12.0260,-1.139,0.789,-0.546,7.98,2.31,6.65
2022-12-08 18:20:12.0360,-1.186,0.858,-0.447,8.51,1.7,5.57
2022-12-08 18:20:12.0460,-1.203,0.904,-0.357,8.85,0.48,3.34
2022-12-08 18:20:12.0570,-1.191,0.925,-0.276,8.85,0.48,3.34
2022-12-08 18:20:12.0660,-1.186,0.944,-0.206,8.56,0.22,2.36
2022-12-08 18:20:12.0760,-1.191,0.967,-0.166,8.31,-0.05,1.52
2022-12-08 18:20:12.0860,-1.2,0.988,-0.18,8.13,-0.36,1.02
2022-12-08 18:20:12.0960,-1.233,1.017,-0.24,7.97,-0.68,1.08
2022-12-08 18:20:12.1060,-1.276,1.064,-0.315,8.03,-1.08,1.63
2022-12-08 18:20:12.1160,-1.289,1.088,-0.379,8.16,-1.68,2.35
2022-12-08 18:20:12.1260,-1.299,1.088,-0.443,8.0,-2.07,2.99
2022-12-08 18:20:12.1360,-1.308,1.073,-0.499,7.78,-2.24,3.65
2022-12-08 18:20:12.1460,-1.311,1.038,-0.551,7.55,-2.28,4.22
2022-12-08 18:20:12.1560,-1.32,1.007,-0.603,7.26,-2.16,4.73
2022-12-08 18:20:12.1660,-1.324,0.986,-0.638,7.01,-2.1,5.2
2022-12-08 18:20:12.1760,-1.315,0.983,-0.641,6.71,-2.18,5.47
2022-12-08 18:20:12.1870,-1.297,0.997,-0.623,6.28,-2.47,5.37
2022-12-08 18:20:12.1960,-1.271,1.022,-0.6,5.76,-2.96,5.01
2022-12-08 18:20:12.2060,-1.218,1.063,-0.567,5.17,-3.61,4.54
2022-12-08 18:20:12.2170,-1.181,1.112,-0.528,4.34,-4.45,3.93
2022-12-08 18:20:12.2260,-1.15,1.146,-0.481,3.7,-5.41,3.22
2022-12-08 18:20:12.2360,-1.114,1.202,-0.426,3.16,-6.25,2.41
2022-12-08 18:20:12.2460,-1.079,1.254,-0.369,2.63,-7.31,1.48
2022-12-08 18:20:12.2570,-1.022,1.289,-0.308,2.15,-8.36,0.53
2022-12-08 18:20:12.2670,-0.951,1.292,-0.25,1.5,-9.25,-0.47
2022-12-08 18:20:12.2770,-0.88,1.272,-0.187,0.77,-9.83,-1.43
2022-12-08 18:20:12.2870,-0.808,1.255,-0.142,0.09,-10.17,-2.41
2022-12-08 18:20:12.2970,-0.73,1.224,-0.118,-0.56,-10.52,-3.19
2022-12-08 18:20:12.3070,-0.667,1.181,-0.106,-1.24,-10.7,-3.75
2022-12-08 18:20:12.3170,-0.602,1.149,-0.086,-1.76,-10.76,-4.14
2022-12-08 18:20:12.3270,-0.537,1.14,-0.056,-2.27,-10.88,-4.57
2022-12-08 18:20:12.3370,-0.443,1.116,-0.017,-2.8,-11.23,-5.05
2022-12-08 18:20:12.3470,-0.322,1.066,0.036,-3.62,-11.38,-5.55
2022-12-08 18:20:12.3570,-0.223,1.005,0.097,-4.73,-11.25,-6.13
2022-12-08 18:20:12.3670,-0.171,0.964,0.149,-5.66,-10.97,-6.75
2022-12-08 18:20:12.3770,-0.16,0.939,0.175,-6.16,-10.83,-7.22
2022-12-08 18:20:12.3870,-0.185,0.923,0.166,-6.28,-10.81,-7.39
2022-12-08 18:20:12.3970,-0.238,0.913,0.134,-6.09,-10.82,-7.19
2022-12-08 18:20:12.4070,-0.255,0.917,0.116,-5.63,-10.85,-6.73
2022-12-08 18:20:12.4170,-0.262,0.915,0.111,-5.55,-10.98,-6.39
2022-12-08 18:20:12.4270,-0.295,0.935,0.111,-5.58,-11.02,-6.18
2022-12-08 18:20:12.4370,-0.317,0.987,0.135,-5.34,-11.24,-6.01
2022-12-08 18:20:12.4470,-0.281,1.022,0.18,-5.21,-11.75,-6.11
2022-12-08 18:20:12.4570,-0.194,1.002,0.238,-5.65,-12.05,-6.43
2022-12-08 18:20:12.4670,-0.144,0.972,0.275,-6.57,-11.76,-6.92
2022-12-08 18:20:12.4770,-0.148,0.969,0.258,-7.11,-11.3,-7.23
2022-12-08 18:20:12.4870,-0.188,0.985,0.197,-7.14,-11.05,-7.03
2022-12-08 18:20:12.4970,-0.255,1.02,0.112,-6.8,-10.93,-6.42
2022-12-08 18:20:12.5070,-0.344,1.086,0.02,-6.2,-10.95,-5.56
2022-12-08 18:20:12.5170,-0.451,1.169,-0.07,-5.38,-11.23,-4.61
2022-12-08 18:20:12.5270,-0.563,1.255,-0.148,-4.38,-11.66,-3.65
2022-12-08 18:20:12.5370,-0.682,1.34,-0.21,-3.33,-12.08,-2.77
2022-12-08 18:20:12.5470,-0.785,1.405,-0.254,-2.22,-12.48,-2.0
2022-12-08 18:20:12.5570,-0.874,1.444,-0.275,-1.26,-12.67,-1.37
2022-12-08 18:20:12.5670,-0.957,1.46,-0.283,-0.41,-12.6,-0.92
2022-12-08 18:20:12.5770,-1.041,1.457,-0.281,0.39,-12.29,-0.57
2022-12-08 18:20:12.5870,-1.11,1.432,-0.271,1.23,-11.8,-0.3
2022-12-08 18:20:12.5980,-1.141,1.379,-0.254,1.95,-11.08,-0.1
2022-12-08 18:20:12.6070,-1.146,1.32,-0.238,2.33,-10.1,0.04
2022-12-08 18:20:12.6170,-1.147,1.266,-0.234,2.5,-9.06,0.18
2022-12-08 18:20:12.6270,-1.141,1.213,-0.249,2.65,-8.08,0.41
2022-12-08 18:20:12.6370,-1.134,1.158,-0.282,2.78,-7.12,0.82
2022-12-08 18:20:12.6470,-1.123,1.106,-0.323,2.92,-6.16,1.38
2022-12-08 18:20:12.6570,-1.108,1.055,-0.379,3.05,-5.24,2.01
2022-12-08 18:20:12.6670,-1.09,1.0,-0.443,3.16,-4.35,2.74
2022-12-08 18:20:12.6770,-1.066,0.945,-0.505,3.26,-3.46,3.53
2022-12-08 18:20:12.6870,-1.039,0.887,-0.562,3.3,-2.59,4.28
2022-12-08 18:20:12.6970,-1.015,0.828,-0.603,3.33,-1.71,4.95
2022-12-08 18:20:12.7080,-1.0,0.775,-0.622,3.39,-0.85,5.45
2022-12-08 18:20:12.7170,-0.989,0.73,-0.613,3.54,-0.07,5.71
2022-12-08 18:20:12.7280,-0.984,0.695,-0.578,3.72,0.61,5.67
2022-12-08 18:20:12.7380,-0.976,0.668,-0.515,3.96,1.16,5.36
2022-12-08 18:20:12.7480,-0.991,0.667,-0.387,4.17,1.63,4.75
2022-12-08 18:20:12.7580,-0.968,0.65,-0.3,4.59,1.81,3.5
2022-12-08 18:20:12.7680,-0.967,0.635,-0.338,4.63,2.14,2.66
2022-12-08 18:20:12.7780,-1.011,0.636,-0.356,4.89,2.43,3.06
2022-12-08 18:20:12.7880,-1.031,0.662,-0.331,5.59,2.56,3.26
2022-12-08 18:20:12.7980,-1.051,0.679,-0.3,6.04,2.42,3.01
2022-12-08 18:20:12.8080,-1.081,0.686,-0.277,6.48,2.37,2.72
2022-12-08 18:20:12.8180,-1.125,0.698,-0.262,7.01,2.4,2.49
2022-12-08 18:20:12.8280,-1.186,0.713,-0.257,7.68,2.37,2.33
2022-12-08 18:20:12.8380,-1.248,0.715,-0.258,8.49,2.29,2.27
2022-12-08 18:20:12.8480,-1.291,0.725,-0.247,9.29,2.34,2.27
2022-12-08 18:20:12.8580,-1.291,0.754,-0.228,9.88,2.29,2.16
2022-12-08 18:20:12.8680,-1.265,0.761,-0.233,10.03,2.05,1.99
2022-12-08 18:20:12.8780,-1.224,0.753,-0.244,9.9,2.01,2.06
2022-12-08 18:20:12.8880,-1.182,0.749,-0.256,9.61,2.12,2.2
2022-12-08 18:20:12.8980,-1.16,0.74,-0.28,9.29,2.18,2.37
2022-12-08 18:20:12.9080,-1.177,0.732,-0.322,9.17,2.3,2.66
2022-12-08 18:20:12.9180,-1.252,0.77,-0.376,9.41,2.39,3.15
2022-12-08 18:20:12.9280,-1.316,0.799,-0.44,10.21,2.03,3.75
2022-12-08 18:20:12.9380,-1.303,0.768,-0.5,10.87,1.76,4.46
2022-12-08 18:20:12.9480,-1.244,0.712,-0.545,10.76,2.06,5.12
2022-12-08 18:20:12.9580,-1.158,0.659,-0.583,10.18,2.6,5.6
2022-12-08 18:20:12.9680,-1.058,0.597,-0.6,9.32,3.13,5.98
2022-12-08 18:20:12.9780,-1.0,0.551,-0.596,8.32,3.72,6.12
2022-12-08 18:20:12.9880,-1.027,0.549,-0.561,7.71,4.18,6.0
2022-12-08 18:20:12.9980,-1.144,0.621,-0.48,7.94,4.18,5.53
2022-12-08 18:20:13.0080,-1.256,0.731,-0.383,9.03,3.46,4.58
2022-12-08 18:20:13.0180,-1.372,0.832,-0.285,11.05,1.33,2.3
2022-12-08 18:20:13.0290,-1.452,0.911,-0.192,11.05,1.33,2.3
2022-12-08 18:20:13.0380,-1.459,0.943,-0.138,11.66,0.5,1.22
2022-12-08 18:20:13.0490,-1.44,0.957,-0.126,11.51,0.12,0.55
2022-12-08 18:20:13.0590,-1.442,1.003,-0.145,11.06,-0.11,0.34
2022-12-08 18:20:13.0690,-1.461,1.079,-0.191,10.78,-0.67,0.46
2022-12-08 18:20:13.0790,-1.478,1.145,-0.251,10.64,-1.55,0.91
2022-12-08 18:20:13.0890,-1.478,1.194,-0.313,10.44,-2.35,1.52
2022-12-08 18:20:13.0990,-1.455,1.225,-0.373,10.06,-3.01,2.18
2022-12-08 18:20:13.1090,-1.408,1.237,-0.429,9.44,-3.52,2.83
2022-12-08 18:20:13.1190,-1.334,1.23,-0.473,8.58,-3.87,3.46
2022-12-08 18:20:13.1290,-1.266,1.208,-0.489,7.45,-4.06,3.93
2022-12-08 18:20:13.1390,-1.203,1.2,-0.491,6.38,-4.15,4.12
2022-12-08 18:20:13.1490,-1.145,1.203,-0.483,5.38,-4.39,4.12
2022-12-08 18:20:13.1590,-1.095,1.208,-0.468,4.42,-4.78,3.98
2022-12-08 18:20:13.1690,-1.048,1.225,-0.432,3.56,-5.22,3.72
2022-12-08 18:20:13.1790,-0.975,1.232,-0.369,2.77,-5.8,3.2
2022-12-08 18:20:13.1890,-0.897,1.225,-0.287,1.75,-6.29,2.38
2022-12-08 18:20:13.1990,-0.837,1.217,-0.217,0.71,-6.66,1.35
2022-12-08 18:20:13.2090,-0.742,1.204,-0.159,-0.12,-7.04,0.44
2022-12-08 18:20:13.2190,-0.66,1.187,-0.095,-1.26,-7.37,-0.35
2022-12-08 18:20:13.2290,-0.613,1.164,-0.039,-2.25,-7.65,-1.17
2022-12-08 18:20:13.2390,-0.591,1.145,-0.002,-2.86,-7.87,-1.88
2022-12-08 18:20:13.2490,-0.57,1.125,0.019,-3.2,-8.13,-2.36
2022-12-08 18:20:13.2590,-0.542,1.106,0.034,-3.53,-8.36,-2.64
2022-12-08 18:20:13.2690,-0.507,1.083,0.044,-3.91,-8.6,-2.82
2022-12-08 18:20:13.2790,-0.472,1.062,0.05,-4.35,-8.78,-2.9
2022-12-08 18:20:13.2890,-0.433,1.029,0.05,-4.77,-8.96,-2.89
2022-12-08 18:20:13.2990,-0.388,0.971,0.052,-5.24,-9.01,-2.79
2022-12-08 18:20:13.3090,-0.351,0.93,0.068,-6.14,-8.71,-2.72
2022-12-08 18:20:13.3210,-0.338,0.914,0.087,-6.14,-8.71,-2.72
2022-12-08 18:20:13.3300,-0.343,0.917,0.108,-6.31,-8.84,-2.78
2022-12-08 18:20:13.3400,-0.351,0.942,0.127,-6.28,-9.13,-2.86
2022-12-08 18:20:13.3500,-0.337,0.974,0.144,-6.22,-9.61,-2.95
2022-12-08 18:20:13.3600,-0.302,0.99,0.153,-6.36,-10.13,-3.02
2022-12-08 18:20:13.3700,-0.259,0.996,0.152,-6.71,-10.45,-3.05
2022-12-08 18:20:13.3800,-0.218,1.0,0.139,-7.12,-10.64,-2.99
2022-12-08 18:20:13.3900,-0.185,0.993,0.115,-7.52,-10.77,-2.84
2022-12-08 18:20:13.4000,-0.165,0.974,0.081,-7.84,-10.74,-2.59
2022-12-08 18:20:13.4100,-0.173,0.966,0.032,-8.04,-10.55,-2.25
2022-12-08 18:20:13.4200,-0.244,1.0,-0.022,-7.96,-10.4,-1.76
2022-12-08 18:20:13.4300,-0.338,1.064,-0.062,-7.28,-10.63,-1.23
2022-12-08 18:20:13.4400,-0.378,1.081,-0.085,-6.37,-11.11,-0.84
2022-12-08 18:20:13.4500,-0.361,1.02,-0.104,-5.99,-11.1,-0.61
2022-12-08 18:20:13.4600,-0.359,0.962,-0.129,-6.17,-10.3,-0.42
2022-12-08 18:20:13.4700,-0.395,0.953,-0.161,-6.19,-9.49,-0.17
2022-12-08 18:20:13.4800,-0.452,0.959,-0.189,-5.83,-9.12,0.15
2022-12-08 18:20:13.4900,-0.527,0.978,-0.212,-5.27,-8.88,0.44
2022-12-08 18:20:13.5000,-0.616,1.018,-0.222,-4.51,-8.75,0.68
2022-12-08 18:20:13.5100,-0.707,1.084,-0.219,-3.6,-8.82,0.79
2022-12-08 18:20:13.5200,-0.775,1.15,-0.203,-2.66,-9.13,0.77
2022-12-08 18:20:13.5300,-0.825,1.197,-0.168,-1.94,-9.43,0.64
2022-12-08 18:20:13.5400,-0.866,1.239,-0.121,-1.38,-9.54,0.29
2022-12-08 18:20:13.5500,-0.901,1.277,-0.075,-0.88,-9.6,-0.16
2022-12-08 18:20:13.5600,-0.933,1.302,-0.037,-0.44,-9.6,-0.6
2022-12-08 18:20:13.5700,-0.974,1.317,-0.013,0.01,-9.47,-0.95
2022-12-08 18:20:13.5800,-1.016,1.311,0.001,0.56,-9.22,-1.16
2022-12-08 18:20:13.5900,-1.049,1.283,0.002,1.14,-8.77,-1.27
2022-12-08 18:20:13.6000,-1.065,1.234,-0.019,1.66,-8.09,-1.23
2022-12-08 18:20:13.6100,-1.061,1.163,-0.067,2.03,-7.21,-0.96
2022-12-08 18:20:13.6200,-1.049,1.09,-0.138,2.21,-6.12,-0.41
2022-12-08 18:20:13.6300,-1.031,1.027,-0.219,2.33,-5.03,0.39
2022-12-08 18:20:13.6400,-1.007,0.964,-0.301,2.41,-4.06,1.3
2022-12-08 18:20:13.6500,-0.978,0.898,-0.377,2.44,-3.11,2.22
2022-12-08 18:20:13.6600,-0.941,0.829,-0.439,2.42,-2.15,3.08
2022-12-08 18:20:13.6700,-0.906,0.762,-0.48,2.33,-1.19,3.8
2022-12-08 18:20:13.6800,-0.884,0.705,-0.494,2.26,-0.26,4.29
2022-12-08 18:20:13.6900,-0.869,0.651,-0.49,2.33,0.56,4.49
2022-12-08 18:20:13.7000,-0.876,0.608,-0.455,2.47,1.32,4.48
2022-12-08 18:20:13.7100,-0.893,0.58,-0.397,2.83,1.97,4.15
2022-12-08 18:20:13.7200,-0.915,0.569,-0.325,3.29,2.44,3.55
2022-12-08 18:20:13.7300,-0.932,0.555,-0.253,3.79,2.73,2.82
2022-12-08 18:20:13.7410,-0.946,0.547,-0.185,4.23,3.04,2.07
2022-12-08 18:20:13.7510,-0.952,0.554,-0.125,4.64,3.27,1.36
2022-12-08 18:20:13.7610,-0.961,0.569,-0.075,4.96,3.33,0.73
2022-12-08 18:20:13.7710,-0.973,0.586,-0.039,5.29,3.3,0.21
2022-12-08 18:20:13.7810,-0.987,0.608,-0.02,5.64,3.23,-0.16
2022-12-08 18:20:13.7910,-1.007,0.62,-0.012,6.02,3.12,-0.36
2022-12-08 18:20:13.8010,-1.029,0.623,-0.016,6.43,3.08,-0.44
2022-12-08 18:20:13.8110,-1.063,0.637,-0.02,6.87,3.13,-0.39
2022-12-08 18:20:13.8210,-1.113,0.663,-0.021,7.4,3.06,-0.32
2022-12-08 18:20:13.8310,-1.169,0.696,-0.019,8.08,2.87,-0.29
2022-12-08 18:20:13.8410,-1.212,0.72,-0.024,8.8,2.6,-0.26
2022-12-08 18:20:13.8510,-1.233,0.722,-0.041,9.39,2.41,-0.15
2022-12-08 18:20:13.8610,-1.232,0.72,-0.072,9.72,2.43,0.1
2022-12-08 18:20:13.8710,-1.234,0.718,-0.111,9.83,2.48,0.48
2022-12-08 18:20:13.8810,-1.233,0.717,-0.156,9.94,2.52,0.98
2022-12-08 18:20:13.8910,-1.217,0.707,-0.205,10.0,2.55,1.54
2022-12-08 18:20:13.9010,-1.194,0.687,-0.257,9.9,2.66,2.15
2022-12-08 18:20:13.9110,-1.197,0.689,-0.302,9.7,2.85,2.79
2022-12-08 18:20:13.9210,-1.246,0.747,-0.343,9.74,2.83,3.36
2022-12-08 18:20:13.9310,-1.273,0.817,-0.385,10.2,2.25,3.89
2022-12-08 18:20:13.9410,-1.219,0.828,-0.429,10.42,1.55,4.43
2022-12-08 18:20:13.9510,-1.121,0.799,-0.474,9.82,1.42,4.96
2022-12-08 18:20:13.9610,-1.005,0.752,-0.524,8.78,1.68,5.49
2022-12-08 18:20:13.9710,-0.906,0.69,-0.56,7.57,2.12,6.01
2022-12-08 18:20:13.9810,-0.882,0.653,-0.568,6.53,2.71,6.37
2022-12-08 18:20:13.9910,-0.959,0.681,-0.536,6.23,3.06,6.4
2022-12-08 18:20:14.0010,-1.084,0.774,-0.477,6.92,2.78,5.99
2022-12-08 18:20:14.0110,-1.192,0.867,-0.397,8.08,1.85,5.27
2022-12-08 18:20:14.0210,-1.288,0.939,-0.324,9.05,0.93,4.33
2022-12-08 18:20:14.0310,-1.356,0.989,-0.262,9.87,0.2,3.44
2022-12-08 18:20:14.0410,-1.406,1.022,-0.195,10.4,-0.34,2.67
2022-12-08 18:20:14.0510,-1.449,1.064,-0.152,10.71,-0.72,1.87
2022-12-08 18:20:14.0610,-1.482,1.114,-0.15,10.92,-1.2,1.35
2022-12-08 18:20:14.0720,-1.477,1.147,-0.188,10.97,-1.8,1.27
2022-12-08 18:20:14.0810,-1.451,1.162,-0.254,10.64,-2.23,1.64
2022-12-08 18:20:14.0910,-1.419,1.168,-0.322,10.06,-2.52,2.31
2022-12-08 18:20:14.1010,-1.361,1.148,-0.381,9.41,-2.75,3.04
2022-12-08 18:20:14.1110,-1.309,1.134,-0.438,8.48,-2.75,3.71
2022-12-08 18:20:14.1210,-1.276,1.132,-0.488,7.61,-2.83,4.34
2022-12-08 18:20:14.1310,-1.244,1.129,-0.518,6.92,-3.05,4.9
2022-12-08 18:20:14.1410,-1.197,1.117,-0.529,6.22,-3.3,5.23
2022-12-08 18:20:14.1510,-1.147,1.11,-0.521,5.38,-3.49,5.31
2022-12-08 18:20:14.1620,-1.113,1.125,-0.482,4.52,-3.76,5.16
2022-12-08 18:20:14.1720,-1.066,1.144,-0.414,3.82,-4.27,4.64
2022-12-08 18:20:14.1820,-1.002,1.155,-0.333,3.0,-4.85,3.8
2022-12-08 18:20:14.1920,-0.945,1.179,-0.258,2.04,-5.39,2.8
2022-12-08 18:20:14.2020,-0.893,1.208,-0.196,1.17,-6.06,1.83
2022-12-08 18:20:14.2120,-0.844,1.229,-0.138,0.39,-6.81,0.99
2022-12-08 18:20:14.2220,-0.771,1.243,-0.09,-0.33,-7.49,0.2
2022-12-08 18:20:14.2320,-0.702,1.251,-0.041,-1.26,-8.11,-0.46
2022-12-08 18:20:14.2420,-0.643,1.253,-0.004,-2.12,-8.66,-1.11
2022-12-08 18:20:14.2520,-0.587,1.236,0.016,-2.85,-9.15,-1.59
2022-12-08 18:20:14.2620,-0.527,1.21,0.019,-3.53,-9.45,-1.85
2022-12-08 18:20:14.2720,-0.469,1.172,0.015,-4.23,-9.63,-1.9
2022-12-08 18:20:14.2820,-0.414,1.115,0.007,-4.9,-9.68,-1.84
2022-12-08 18:20:14.2920,-0.377,1.049,0.005,-5.51,-9.51,-1.69
2022-12-08 18:20:14.3020,-0.363,1.005,0.017,-5.93,-9.23,-1.58
2022-12-08 18:20:14.3120,-0.375,0.972,0.032,-6.13,-9.13,-1.57
2022-12-08 18:20:14.3220,-0.408,0.959,0.054,-6.04,-9.11,-1.59
2022-12-08 18:20:14.3320,-0.418,0.975,0.091,-5.75,-9.26,-1.68
2022-12-08 18:20:14.3420,-0.407,0.994,0.134,-5.66,-9.68,-1.94
2022-12-08 18:20:14.3520,-0.385,1.012,0.171,-5.77,-10.1,-2.28
2022-12-08 18:20:14.3620,-0.334,1.03,0.207,-5.98,-10.49,-2.6
2022-12-08 18:20:14.3720,-0.267,1.044,0.234,-6.47,-10.86,-2.94
2022-12-08 18:20:14.3820,-0.184,1.042,0.238,-7.11,-11.17,-3.21
2022-12-08 18:20:14.3920,-0.101,1.01,0.208,-7.91,-11.26,-3.28
2022-12-08 18:20:14.4020,-0.058,0.986,0.144,-8.72,-11.02,-3.03
2022-12-08 18:20:14.4120,-0.084,1.017,0.061,-9.13,-10.8,-2.46
2022-12-08 18:20:14.4220,-0.135,1.061,-0.012,-8.87,-11.08,-1.7
2022-12-08 18:20:14.4320,-0.161,1.08,-0.071,-8.37,-11.43,-1.02
2022-12-08 18:20:14.4430,-0.184,1.096,-0.12,-8.12,-11.5,-0.47
2022-12-08 18:20:14.4520,-0.214,1.112,-0.159,-7.91,-11.5,-0.01
2022-12-08 18:20:14.4620,-0.25,1.116,-0.186,-7.63,-11.44,0.38
2022-12-08 18:20:14.4730,-0.303,1.127,-0.194,-7.29,-11.22,0.65
2022-12-08 18:20:14.4830,-0.388,1.158,-0.187,-6.77,-11.02,0.76
2022-12-08 18:20:14.4920,-0.498,1.201,-0.173,-5.94,-10.98,0.74
2022-12-08 18:20:14.5030,-0.611,1.247,-0.156,-4.85,-11.02,0.65
2022-12-08 18:20:14.5130,-0.709,1.288,-0.143,-3.7,-11.06,0.54
2022-12-08 18:20:14.5220,-0.798,1.322,-0.122,-2.68,-11.03,0.47
2022-12-08 18:20:14.5330,-0.898,1.344,-0.091,-1.72,-10.91,0.29
2022-12-08 18:20:14.5430,-0.986,1.358,-0.058,-0.64,-10.67,0.01
2022-12-08 18:20:14.5530,-1.052,1.365,-0.021,0.36,-10.35,-0.3
2022-12-08 18:20:14.5630,-1.089,1.353,0.018,1.17,-9.96,-0.66
2022-12-08 18:20:14.5730,-1.094,1.312,0.047,1.71,-9.39,-1.05
2022-12-08 18:20:14.5830,-1.082,1.257,0.058,1.97,-8.54,-1.33
2022-12-08 18:20:14.5930,-1.065,1.196,0.037,2.07,-7.57,-1.42
2022-12-08 18:20:14.6030,-1.054,1.146,-0.01,2.16,-6.55,-1.19
2022-12-08 18:20:14.6130,-1.041,1.095,-0.077,2.32,-5.66,-0.69
2022-12-08 18:20:14.6230,-1.028,1.036,-0.159,2.46,-4.77,0.04
2022-12-08 18:20:14.6330,-1.021,0.981,-0.239,2.62,-3.83,0.91
2022-12-08 18:20:14.6430,-1.007,0.93,-0.309,2.85,-2.96,1.8
2022-12-08 18:20:14.6530,-0.98,0.875,-0.364,3.0,-2.14,2.58
2022-12-08 18:20:14.6630,-0.946,0.82,-0.4,3.04,-1.32,3.22
2022-12-08 18:20:14.6730,-0.918,0.764,-0.428,3.01,-0.51,3.67
2022-12-08 18:20:14.6830,-0.902,0.709,-0.433,3.03,0.28,4.03
2022-12-08 18:20:14.6930,-0.902,0.666,-0.417,3.17,1.05,4.15
2022-12-08 18:20:14.7030,-0.91,0.637,-0.386,3.48,1.67,4.04
2022-12-08 18:20:14.7130,-0.924,0.623,-0.35,3.86,2.14,3.79
2022-12-08 18:20:14.7230,-0.937,0.619,-0.309,4.28,2.45,3.47
2022-12-08 18:20:14.7330,-0.948,0.625,-0.269,4.7,2.65,3.09
2022-12-08 18:20:14.7430,-0.96,0.632,-0.235,5.09,2.73,2.71
2022-12-08 18:20:14.7530,-0.984,0.637,-0.21,5.48,2.78,2.38
2022-12-08 18:20:14.7630,-1.024,0.65,-0.187,6.0,2.85,2.13
2022-12-08 18:20:14.7730,-1.071,0.66,-0.155,6.67,2.83,1.89
2022-12-08 18:20:14.7830,-1.111,0.665,-0.119,7.39,2.82,1.56
2022-12-08 18:20:14.7930,-1.149,0.668,-0.082,8.03,2.85,1.18
2022-12-08 18:20:14.8030,-1.205,0.7,-0.05,8.63,2.89,0.82
2022-12-08 18:20:14.8130,-1.273,0.746,-0.034,9.39,2.64,0.51
2022-12-08 18:20:14.8230,-1.32,0.796,-0.031,10.24,2.22,0.37
2022-12-08 18:20:14.8350,-1.327,0.826,-0.044,10.86,1.77,0.37
2022-12-08 18:20:14.8440,-1.308,0.833,-0.088,11.06,1.51,0.56
2022-12-08 18:20:14.8540,-1.296,0.827,-0.149,10.99,1.46,1.07
2022-12-08 18:20:14.8640,-1.288,0.824,-0.211,10.97,1.53,1.76
2022-12-08 18:20:14.8740,-1.286,0.81,-0.27,10.97,1.57,2.47
2022-12-08 18:20:14.8830,-1.313,0.807,-0.323,11.0,1.71,3.15
2022-12-08 18:20:14.8940,-1.386,0.865,-0.368,11.31,1.74,3.77
2022-12-08 18:20:14.9040,-1.438,0.928,-0.412,12.04,1.17,4.31
2022-12-08 18:20:14.9140,-1.405,0.923,-0.453,12.53,0.54,4.82
2022-12-08 18:20:14.9240,-1.322,0.875,-0.49,12.17,0.58,5.27
2022-12-08 18:20:14.9340,-1.227,0.815,-0.518,11.29,1.04,5.67
2022-12-08 18:20:14.9440,-1.133,0.738,-0.543,10.29,1.61,5.93
2022-12-08 18:20:14.9540,-1.099,0.686,-0.54,9.29,2.36,6.13
2022-12-08 18:20:14.9640,-1.153,0.698,-0.491,8.88,2.87,5.98
2022-12-08 18:20:14.9740,-1.249,0.77,-0.411,9.31,2.74,5.35
2022-12-08 18:20:14.9840,-1.334,0.851,-0.306,10.14,2.02,4.36
2022-12-08 18:20:14.9940,-1.405,0.927,-0.201,10.82,1.19,3.11
2022-12-08 18:20:15.0040,-1.456,0.989,-0.102,11.32,0.4,1.86
2022-12-08 18:20:15.0140,-1.497,1.053,-0.013,11.59,-0.28,0.69
2022-12-08 18:20:15.0240,-1.511,1.127,0.035,11.69,-1.0,-0.34
2022-12-08 18:20:15.0340,-1.488,1.199,0.024,11.5,-1.84,-0.9
2022-12-08 18:20:15.0440,-1.463,1.251,-0.037,10.91,-2.69,-0.81
2022-12-08 18:20:15.0540,-1.446,1.297,-0.138,10.27,-3.38,-0.17
2022-12-08 18:20:15.0640,-1.409,1.323,-0.252,9.69,-4.02,0.91
2022-12-08 18:20:15.0740,-1.362,1.322,-0.359,8.91,-4.49,2.15
2022-12-08 18:20:15.0840,-1.307,1.311,-0.442,8.04,-4.73,3.33
2022-12-08 18:20:15.0940,-1.25,1.301,-0.499,7.08,-4.9,4.28
2022-12-08 18:20:15.1040,-1.188,1.28,-0.529,6.12,-5.11,4.93
2022-12-08 18:20:15.1140,-1.132,1.266,-0.53,5.12,-5.25,5.27
2022-12-08 18:20:15.1240,-1.076,1.262,-0.504,4.18,-5.47,5.27
2022-12-08 18:20:15.1340,-1.009,1.253,-0.462,3.26,-5.82,4.95
2022-12-08 18:20:15.1440,-0.93,1.234,-0.401,2.26,-6.13,4.41
2022-12-08 18:20:15.1540,-0.845,1.217,-0.324,1.17,-6.36,3.64
2022-12-08 18:20:15.1640,-0.771,1.199,-0.248,0.06,-6.61,2.69
2022-12-08 18:20:15.1740,-0.708,1.173,-0.186,-0.92,-6.87,1.74
2022-12-08 18:20:15.1840,-0.645,1.144,-0.143,-1.74,-7.05,0.93
2022-12-08 18:20:15.1940,-0.603,1.123,-0.103,-2.55,-7.18,0.32
2022-12-08 18:20:15.2040,-0.58,1.105,-0.073,-3.12,-7.4,-0.22
2022-12-08 18:20:15.2140,-0.56,1.087,-0.058,-3.49,-7.63,-0.62
2022-12-08 18:20:15.2240,-0.532,1.067,-0.055,-3.81,-7.87,-0.83
2022-12-08 18:20:15.2340,-0.493,1.049,-0.058,-4.2,-8.08,-0.88
2022-12-08 18:20:15.2450,-0.446,1.02,-0.061,-4.68,-8.3,-0.83
2022-12-08 18:20:15.2540,-0.412,0.989,-0.054,-5.22,-8.4,-0.72
2022-12-08 18:20:15.2650,-0.377,0.961,-0.048,-5.62,-8.46,-0.68
2022-12-08 18:20:15.2750,-0.348,0.937,-0.033,-6.02,-8.54,-0.6
2022-12-08 18:20:15.2840,-0.345,0.926,-0.006,-6.35,-8.62,-0.59
2022-12-08 18:20:15.2950,-0.359,0.927,0.018,-6.4,-8.81,-0.69
2022-12-08 18:20:15.3040,-0.373,0.933,0.044,-6.28,-9.08,-0.76
2022-12-08 18:20:15.3150,-0.377,0.948,0.075,-6.15,-9.39,-0.87
2022-12-08 18:20:15.3250,-0.375,0.966,0.101,-6.1,-9.75,-1.04
2022-12-08 18:20:15.3350,-0.352,0.986,0.12,-6.11,-10.13,-1.2
2022-12-08 18:20:15.3450,-0.308,1.004,0.131,-6.33,-10.51,-1.3
2022-12-08 18:20:15.3550,-0.256,1.005,0.132,-6.74,-10.83,-1.36
2022-12-08 18:20:15.3650,-0.208,0.992,0.112,-7.24,-10.95,-1.37
2022-12-08 18:20:15.3750,-0.2,1.012,0.07,-7.7,-10.9,-1.18
2022-12-08 18:20:15.3850,-0.229,1.068,0.024,-7.78,-11.13,-0.82
2022-12-08 18:20:15.3950,-0.24,1.095,-0.022,-7.49,-11.67,-0.43
2022-12-08 18:20:15.4050,-0.217,1.073,-0.065,-7.39,-11.88,-0.05
2022-12-08 18:20:15.4150,-0.195,1.042,-0.119,-7.63,-11.57,0.29
2022-12-08 18:20:15.4250,-0.198,1.025,-0.193,-7.85,-11.14,0.74
2022-12-08 18:20:15.4350,-0.258,1.038,-0.259,-7.83,-10.78,1.39
2022-12-08 18:20:15.4450,-0.351,1.081,-0.311,-7.26,-10.69,1.99
2022-12-08 18:20:15.4550,-0.445,1.141,-0.342,-6.35,-10.86,2.45
2022-12-08 18:20:15.4650,-0.528,1.205,-0.343,-5.43,-11.16,2.73
2022-12-08 18:20:15.4750,-0.603,1.267,-0.312,-4.61,-11.49,2.73
2022-12-08 18:20:15.4850,-0.674,1.325,-0.252,-3.86,-11.75,2.42
2022-12-08 18:20:15.4950,-0.748,1.378,-0.179,-3.13,-11.96,1.84
2022-12-08 18:20:15.5050,-0.817,1.415,-0.111,-2.35,-12.08,1.12
2022-12-08 18:20:15.5150,-0.897,1.436,-0.049,-1.6,-12.03,0.46
2022-12-08 18:20:15.5250,-0.979,1.432,0.007,-0.72,-11.8,-0.16
2022-12-08 18:20:15.5350,-1.038,1.388,0.046,0.21,-11.31,-0.72
2022-12-08 18:20:15.5450,-1.065,1.315,0.066,0.93,-10.42,-1.13
2022-12-08 18:20:15.5550,-1.062,1.223,0.067,1.36,-9.25,-1.34
2022-12-08 18:20:15.5650,-1.05,1.136,0.044,1.54,-7.9,-1.37
2022-12-08 18:20:15.5750,-1.025,1.05,-0.001,1.63,-6.61,-1.17
2022-12-08 18:20:15.5850,-0.992,0.973,-0.064,1.62,-5.34,-0.73
2022-12-08 18:20:15.5950,-0.953,0.911,-0.133,1.54,-4.19,-0.13
2022-12-08 18:20:15.6050,-0.92,0.855,-0.201,1.43,-3.19,0.55
2022-12-08 18:20:15.6150,-0.895,0.806,-0.257,1.39,-2.28,1.23
2022-12-08 18:20:15.6250,-0.877,0.771,-0.301,1.43,-1.45,1.78
2022-12-08 18:20:15.6350,-0.869,0.754,-0.322,1.55,-0.78,2.21
2022-12-08 18:20:15.6460,-0.868,0.739,-0.32,1.78,-0.31,2.4
2022-12-08 18:20:15.6560,-0.884,0.73,-0.288,2.09,0.12,2.36
2022-12-08 18:20:15.6650,-0.902,0.724,-0.23,2.58,0.49,2.02
2022-12-08 18:20:15.6760,-0.926,0.724,-0.16,3.09,0.79,1.41
2022-12-08 18:20:15.6860,-0.955,0.732,-0.102,3.66,1.02,0.7
2022-12-08 18:20:15.6960,-0.997,0.743,-0.06,4.28,1.16,0.11
2022-12-08 18:20:15.7060,-1.05,0.77,-0.029,5.03,1.24,-0.32
2022-12-08 18:20:15.7160,-1.1,0.795,-0.008,5.87,1.15,-0.63
2022-12-08 18:20:15.7260,-1.148,0.816,0.001,6.68,1.06,-0.82
2022-12-08 18:20:15.7360,-1.186,0.821,-0.001,7.45,0.99,-0.88
2022-12-08 18:20:15.7460,-1.211,0.803,-0.019,8.12,1.06,-0.82
2022-12-08 18:20:15.7560,-1.235,0.783,-0.052,8.65,1.35,-0.59
2022-12-08 18:20:15.7660,-1.281,0.775,-0.093,9.14,1.64,-0.2
2022-12-08 18:20:15.7760,-1.341,0.782,-0.13,9.84,1.8,0.27
2022-12-08 18:20:15.7860,-1.396,0.792,-0.16,10.66,1.8,0.73
2022-12-08 18:20:15.7960,-1.433,0.802,-0.179,11.39,1.76,1.1
2022-12-08 18:20:15.8060,-1.451,0.813,-0.198,11.92,1.7,1.39
2022-12-08 18:20:15.8160,-1.447,0.825,-0.219,12.23,1.62,1.67
2022-12-08 18:20:15.8260,-1.417,0.826,-0.237,12.29,1.52,1.98
2022-12-08 18:20:15.8360,-1.371,0.824,-0.256,12.05,1.53,2.26
2022-12-08 18:20:15.8460,-1.324,0.821,-0.273,11.64,1.55,2.56
2022-12-08 18:20:15.8560,-1.308,0.838,-0.284,11.18,1.58,2.82
2022-12-08 18:20:15.8660,-1.329,0.895,-0.293,11.01,1.41,3.02
2022-12-08 18:20:15.8760,-1.302,0.928,-0.307,11.18,0.85,3.19
2022-12-08 18:20:15.8860,-1.204,0.885,-0.318,10.85,0.5,3.41
2022-12-08 18:20:15.8960,-1.084,0.823,-0.348,9.81,0.91,3.57
2022-12-08 18:20:15.9060,-0.983,0.766,-0.387,8.56,1.5,3.91
2022-12-08 18:20:15.9160,-0.925,0.71,-0.401,7.49,2.04,4.28
2022-12-08 18:20:15.9260,-0.916,0.671,-0.387,6.85,2.57,4.39
2022-12-08 18:20:15.9360,-0.967,0.661,-0.357,6.7,2.94,4.18
2022-12-08 18:20:15.9460,-1.044,0.687,-0.315,7.14,3.03,3.77
2022-12-08 18:20:15.9560,-1.128,0.728,-0.26,7.82,2.76,3.21
2022-12-08 18:20:15.9660,-1.212,0.77,-0.199,8.55,2.33,2.51
2022-12-08 18:20:15.9760,-1.274,0.801,-0.134,9.25,1.89,1.73
2022-12-08 18:20:15.9860,-1.311,0.822,-0.062,9.7,1.53,0.93
2022-12-08 18:20:15.9960,-1.325,0.85,-0.013,9.86,1.26,0.08
2022-12-08 18:20:16.0070,-1.325,0.896,-0.003,9.75,0.89,-0.5
2022-12-08 18:20:16.0160,-1.331,0.953,-0.032,9.48,0.33,-0.64
2022-12-08 18:20:16.0260,-1.349,1.014,-0.094,9.23,-0.35,-0.35
2022-12-08 18:20:16.0370,-1.371,1.083,-0.17,9.06,-1.09,0.31
2022-12-08 18:20:16.0470,-1.372,1.135,-0.242,8.94,-1.93,1.14
2022-12-08 18:20:16.0570,-1.356,1.16,-0.301,8.58,-2.63,1.95
2022-12-08 18:20:16.0670,-1.325,1.153,-0.358,8.06,-3.1,2.64
2022-12-08 18:20:16.0770,-1.334,1.125,-0.411,7.38,-3.27,3.29
2022-12-08 18:20:16.0870,-1.4,1.091,-0.465,7.1,-3.26,3.88
2022-12-08 18:20:16.0970,-1.483,1.087,-0.512,7.39,-3.23,4.44
2022-12-08 18:20:16.1070,-1.541,1.083,-0.544,7.83,-3.51,4.85
2022-12-08 18:20:16.1170,-1.55,1.093,-0.55,8.02,-3.85,5.04
2022-12-08 18:20:16.1270,-1.531,1.132,-0.533,7.74,-4.37,4.87
2022-12-08 18:20:16.1370,-1.487,1.214,-0.505,7.22,-5.21,4.38
2022-12-08 18:20:16.1470,-1.425,1.288,-0.466,6.5,-6.5,3.68
2022-12-08 18:20:16.1570,-1.353,1.339,-0.458,5.67,-7.74,2.78
2022-12-08 18:20:16.1670,-1.27,1.385,-0.475,4.82,-8.75,2.09
2022-12-08 18:20:16.1770,-1.184,1.406,-0.511,3.97,-9.71,1.6
2022-12-08 18:20:16.1870,-1.119,1.434,-0.561,3.2,-10.41,1.26
2022-12-08 18:20:16.1970,-1.074,1.438,-0.618,2.73,-11.17,1.05
2022-12-08 18:20:16.2070,-1.039,1.397,-0.66,2.52,-11.68,0.93
2022-12-08 18:20:16.2170,-1.03,1.332,-0.658,2.49,-11.75,0.71
2022-12-08 18:20:16.2270,-1.031,1.307,-0.608,2.75,-11.59,0.12
2022-12-08 18:20:16.2370,-1.013,1.324,-0.547,3.14,-11.84,-0.87
2022-12-08 18:20:16.2470,-0.949,1.305,-0.498,3.35,-12.52,-1.9
2022-12-08 18:20:16.2570,-0.837,1.223,-0.451,3.11,-12.88,-2.73
2022-12-08 18:20:16.2670,-0.701,1.128,-0.393,2.39,-12.61,-3.46
2022-12-08 18:20:16.2770,-0.591,1.036,-0.33,1.41,-12.23,-4.22
2022-12-08 18:20:16.2870,-0.512,0.958,-0.275,0.67,-11.84,-4.96
2022-12-08 18:20:16.2970,-0.452,0.904,-0.228,0.22,-11.59,-5.58
2022-12-08 18:20:16.3070,-0.398,0.852,-0.179,-0.07,-11.53,-6.08
2022-12-08 18:20:16.3170,-0.368,0.766,-0.131,-0.31,-11.46,-6.55
2022-12-08 18:20:16.3270,-0.345,0.668,-0.081,-0.32,-11.02,-7.0
2022-12-08 18:20:16.3370,-0.296,0.583,-0.0,-0.3,-10.43,-7.44
2022-12-08 18:20:16.3470,-0.207,0.514,0.105,-0.53,-9.92,-8.18
2022-12-08 18:20:16.3570,-0.183,0.426,0.061,-1.19,-9.5,-9.16
2022-12-08 18:20:16.3670,-0.135,0.308,-0.02,-1.22,-8.84,-8.7
2022-12-08 18:20:16.3770,-0.155,0.247,-0.071,-1.51,-7.82,-7.88
2022-12-08 18:20:16.3880,-0.195,0.18,-0.116,-1.14,-7.32,-7.39
2022-12-08 18:20:16.3970,-0.202,0.078,-0.182,-0.57,-6.71,-6.96
2022-12-08 18:20:16.4070,-0.2,-0.023,-0.282,-0.36,-5.74,-6.35
2022-12-08 18:20:16.4180,-0.224,-0.118,-0.392,-0.25,-4.75,-5.4
2022-12-08 18:20:16.4280,-0.237,-0.18,-0.508,0.08,-3.81,-4.35
2022-12-08 18:20:16.4380,-0.232,-0.208,-0.634,0.27,-3.18,-3.25
2022-12-08 18:20:16.4480,-0.256,-0.199,-0.761,0.27,-2.88,-2.03
2022-12-08 18:20:16.4580,-0.265,-0.172,-0.869,0.54,-2.95,-0.8
2022-12-08 18:20:16.4680,-0.269,-0.141,-0.945,0.65,-3.19,0.23
2022-12-08 18:20:16.4780,-0.284,-0.121,-0.995,0.72,-3.46,0.96
2022-12-08 18:20:16.4880,-0.315,-0.139,-1.008,0.88,-3.63,1.42
2022-12-08 18:20:16.4980,-0.386,-0.203,-0.984,1.18,-3.42,1.53
2022-12-08 18:20:16.5080,-0.475,-0.275,-0.972,1.87,-2.75,1.27
2022-12-08 18:20:16.5180,-0.515,-0.327,-0.985,2.73,-1.99,1.13
2022-12-08 18:20:16.5280,-0.57,-0.37,-0.978,3.1,-1.41,1.23
2022-12-08 18:20:16.5380,-0.627,-0.399,-0.988,3.61,-0.94,1.14
2022-12-08 18:20:16.5480,-0.611,-0.398,-0.98,4.17,-0.61,1.21
2022-12-08 18:20:16.5580,-0.516,-0.403,-0.928,4.02,-0.58,1.11
2022-12-08 18:20:16.5680,-0.424,-0.404,-0.861,3.11,-0.49,0.57
2022-12-08 18:20:16.5780,-0.325,-0.385,-0.816,2.27,-0.44,-0.12
2022-12-08 18:20:16.5880,-0.233,-0.371,-0.77,1.37,-0.6,-0.59
2022-12-08 18:20:16.5980,-0.161,-0.373,-0.702,0.56,-0.71,-1.08
2022-12-08 18:20:16.6080,-0.11,-0.389,-0.622,-0.06,-0.68,-1.77
2022-12-08 18:20:16.6180,-0.083,-0.41,-0.545,-0.48,-0.52,-2.57
2022-12-08 18:20:16.6280,-0.08,-0.434,-0.485,-0.68,-0.31,-3.34
2022-12-08 18:20:16.6380,-0.085,-0.454,-0.441,-0.65,-0.08,-3.94
2022-12-08 18:20:16.6480,-0.091,-0.473,-0.422,-0.56,0.11,-4.36
2022-12-08 18:20:16.6580,-0.092,-0.488,-0.416,-0.46,0.28,-4.55
2022-12-08 18:20:16.6680,-0.083,-0.49,-0.42,-0.42,0.42,-4.61
2022-12-08 18:20:16.6780,-0.075,-0.49,-0.448,-0.47,0.43,-4.57
2022-12-08 18:20:16.6880,-0.085,-0.492,-0.499,-0.52,0.42,-4.3
2022-12-08 18:20:16.6980,-0.103,-0.504,-0.553,-0.39,0.44,-3.81
2022-12-08 18:20:16.7080,-0.114,-0.519,-0.585,-0.18,0.56,-3.27
2022-12-08 18:20:16.7180,-0.116,-0.525,-0.597,-0.04,0.69,-2.96
2022-12-08 18:20:16.7280,-0.12,-0.53,-0.622,0.02,0.74,-2.84
2022-12-08 18:20:16.7380,-0.124,-0.538,-0.677,0.09,0.77,-2.59
2022-12-08 18:20:16.7480,-0.132,-0.543,-0.736,0.16,0.84,-2.05
2022-12-08 18:20:16.7580,-0.141,-0.549,-0.779,0.26,0.87,-1.47
2022-12-08 18:20:16.7680,-0.146,-0.556,-0.797,0.39,0.91,-1.04
2022-12-08 18:20:16.7780,-0.149,-0.565,-0.788,0.47,0.96,-0.86
2022-12-08 18:20:16.7890,-0.159,-0.575,-0.8,0.55,1.02,-0.94
2022-12-08 18:20:16.7980,-0.161,-0.583,-0.813,0.7,1.11,-0.82
2022-12-08 18:20:16.8090,-0.15,-0.584,-0.81,0.77,1.17,-0.69
2022-12-08 18:20:16.8190,-0.133,-0.582,-0.828,0.71,1.17,-0.72
2022-12-08 18:20:16.8290,-0.101,-0.575,-0.867,0.59,1.17,-0.55
2022-12-08 18:20:16.8390,-0.073,-0.557,-0.932,0.32,1.11,-0.18
2022-12-08 18:20:16.8490,-0.053,-0.539,-1.031,0.08,0.96,0.44
2022-12-08 18:20:16.8590,-0.038,-0.524,-1.119,-0.07,0.82,1.4
2022-12-08 18:20:16.8690,-0.022,-0.513,-1.155,-0.17,0.71,2.24
2022-12-08 18:20:16.8790,0.024,-0.506,-1.143,-0.27,0.63,2.57
2022-12-08 18:20:16.8890,0.094,-0.519,-1.13,-0.66,0.6,2.42
2022-12-08 18:20:16.8990,0.142,-0.539,-1.161,-1.28,0.76,2.28
2022-12-08 18:20:16.9090,0.161,-0.541,-1.222,-1.69,1.01,2.56
2022-12-08 18:20:16.9190,0.164,-0.516,-1.272,-1.84,1.05,3.14
2022-12-08 18:20:16.9290,0.158,-0.485,-1.274,-1.85,0.83,3.62
2022-12-08 18:20:16.9390,0.148,-0.459,-1.238,-1.79,0.54,3.64
2022-12-08 18:20:16.9490,0.131,-0.442,-1.194,-1.71,0.28,3.28
2022-12-08 18:20:16.9590,0.09,-0.433,-1.171,-1.59,0.1,2.86
2022-12-08 18:20:16.9690,0.023,-0.432,-1.175,-1.26,0.01,2.64
2022-12-08 18:20:16.9790,-0.043,-0.438,-1.176,-0.68,0.0,2.68
2022-12-08 18:20:16.9890,-0.087,-0.442,-1.156,-0.11,0.06,2.7
2022-12-08 18:20:16.9990,-0.111,-0.432,-1.116,0.23,0.11,2.5
2022-12-08 18:20:17.0090,-0.127,-0.4,-1.061,0.37,0.03,2.11
2022-12-08 18:20:17.0190,-0.141,-0.36,-0.976,0.45,-0.27,1.56
2022-12-08 18:20:17.0290,-0.152,-0.319,-0.855,0.49,-0.64,0.73
2022-12-08 18:20:17.0390,-0.147,-0.285,-0.711,0.5,-1.02,-0.46
2022-12-08 18:20:17.0490,-0.111,-0.245,-0.569,0.34,-1.32,-1.87
2022-12-08 18:20:17.0590,-0.067,-0.215,-0.445,-0.19,-1.68,-3.26
2022-12-08 18:20:17.0690,-0.046,-0.187,-0.329,-0.85,-1.96,-4.45
2022-12-08 18:20:17.0790,-0.102,-0.138,-0.244,-1.35,-2.21,-5.53
2022-12-08 18:20:17.0890,-0.163,-0.097,-0.218,-1.13,-2.68,-6.3
2022-12-08 18:20:17.0990,-0.142,-0.08,-0.178,-0.92,-3.08,-6.45
2022-12-08 18:20:17.1090,-0.089,-0.1,-0.128,-1.54,-3.25,-6.72
2022-12-08 18:20:17.1200,-0.047,-0.128,-0.081,-2.5,-3.04,-7.04
2022-12-08 18:20:17.1290,-0.018,-0.149,-0.064,-3.36,-2.75,-7.31
2022-12-08 18:20:17.1390,-0.018,-0.165,-0.073,-4.11,-2.5,-7.27
2022-12-08 18:20:17.1490,-0.077,-0.17,-0.087,-4.56,-2.29,-6.95
2022-12-08 18:20:17.1600,-0.167,-0.158,-0.087,-4.42,-2.17,-6.56
2022-12-08 18:20:17.1700,-0.265,-0.136,-0.078,-3.93,-2.19,-6.32
2022-12-08 18:20:17.1800,-0.363,-0.104,-0.071,-3.34,-2.27,-6.17
2022-12-08 18:20:17.1900,-0.444,-0.076,-0.069,-2.69,-2.44,-6.04
2022-12-08 18:20:17.2000,-0.48,-0.056,-0.078,-2.17,-2.54,-5.88
2022-12-08 18:20:17.2100,-0.476,-0.037,-0.095,-2.05,-2.54,-5.65
2022-12-08 18:20:17.2200,-0.465,-0.035,-0.141,-2.31,-2.51,-5.35
2022-12-08 18:20:17.2300,-0.463,-0.02,-0.197,-2.62,-2.3,-4.77
2022-12-08 18:20:17.2400,-0.475,0.069,-0.218,-2.81,-2.19,-4.11
2022-12-08 18:20:17.2500,-0.509,0.141,-0.253,-2.88,-2.8,-3.78
2022-12-08 18:20:17.2600,-0.547,0.217,-0.288,-2.72,-3.22,-3.31
2022-12-08 18:20:17.2700,-0.593,0.319,-0.294,-2.52,-3.66,-2.82
2022-12-08 18:20:17.2800,-0.637,0.463,-0.277,-2.23,-4.34,-2.6
2022-12-08 18:20:17.2900,-0.682,0.617,-0.261,-1.69,-6.57,-2.53
2022-12-08 18:20:17.3040,-0.758,0.767,-0.251,-1.69,-6.57,-2.53
2022-12-08 18:20:17.3100,-0.844,0.918,-0.265,-1.09,-7.67,-2.39
2022-12-08 18:20:17.3200,-0.911,1.061,-0.276,-0.4,-8.75,-1.98
2022-12-08 18:20:17.3300,-0.977,1.17,-0.279,0.14,-9.73,-1.59
2022-12-08 18:20:17.3400,-1.066,1.275,-0.275,0.68,-10.36,-1.25
2022-12-08 18:20:17.3500,-1.186,1.402,-0.251,1.49,-10.95,-0.98
2022-12-08 18:20:17.3600,-1.302,1.522,-0.202,2.62,-11.75,-0.89
2022-12-08 18:20:17.3700,-1.369,1.606,-0.154,3.76,-12.48,-1.05
2022-12-08 18:20:17.3800,-1.38,1.665,-0.139,4.45,-12.87,-1.2
2022-12-08 18:20:17.3900,-1.356,1.707,-0.167,4.62,-13.0,-1.03
2022-12-08 18:20:17.4000,-1.31,1.733,-0.233,4.48,-12.98,-0.43
2022-12-08 18:20:17.4100,-1.274,1.739,-0.343,4.16,-12.8,0.54
2022-12-08 18:20:17.4200,-1.285,1.748,-0.486,3.98,-12.41,1.94
2022-12-08 18:20:17.4300,-1.353,1.784,-0.63,4.28,-12.07,3.65
2022-12-08 18:20:17.4400,-1.444,1.804,-0.753,6.34,-11.81,6.81
2022-12-08 18:20:17.4520,-1.508,1.784,-0.836,6.34,-11.81,6.81
2022-12-08 18:20:17.4600,-1.537,1.701,-0.872,7.24,-11.25,7.83
2022-12-08 18:20:17.4700,-1.54,1.589,-0.837,7.81,-10.1,8.32
2022-12-08 18:20:17.4800,-1.522,1.475,-0.735,8.13,-8.69,8.05
2022-12-08 18:20:17.4900,-1.477,1.361,-0.603,8.24,-7.29,7.08
2022-12-08 18:20:17.5000,-1.421,1.242,-0.478,8.08,-5.93,5.78
2022-12-08 18:20:17.5100,-1.374,1.131,-0.377,7.79,-4.54,4.52
2022-12-08 18:20:17.5200,-1.308,1.023,-0.312,7.58,-3.26,3.5
2022-12-08 18:20:17.5300,-1.212,0.911,-0.291,7.15,-2.04,2.83
2022-12-08 18:20:17.5410,-1.108,0.806,-0.294,6.42,-0.8,2.57
2022-12-08 18:20:17.5500,-1.014,0.726,-0.306,5.59,0.36,2.56
2022-12-08 18:20:17.5610,-0.92,0.666,-0.318,4.85,1.25,2.62
2022-12-08 18:20:17.5710,-0.84,0.609,-0.321,4.11,1.94,2.68
2022-12-08 18:20:17.5810,-0.775,0.55,-0.308,3.49,2.59,2.64
2022-12-08 18:20:17.5910,-0.723,0.493,-0.277,3.03,3.26,2.42
2022-12-08 18:20:17.6010,-0.689,0.444,-0.233,2.7,3.9,2.03
2022-12-08 18:20:17.6110,-0.664,0.401,-0.183,2.54,4.46,1.5
2022-12-08 18:20:17.6210,-0.65,0.363,-0.133,2.47,4.96,0.92
2022-12-08 18:20:17.6310,-0.645,0.34,-0.092,2.51,5.4,0.35
2022-12-08 18:20:17.6410,-0.646,0.332,-0.056,2.63,5.69,-0.13
2022-12-08 18:20:17.6510,-0.649,0.313,-0.026,2.8,5.83,-0.54
2022-12-08 18:20:17.6610,-0.661,0.289,-0.005,2.98,6.07,-0.87
2022-12-08 18:20:17.6710,-0.686,0.287,0.012,3.24,6.34,-1.11
2022-12-08 18:20:17.6810,-0.719,0.299,0.029,3.61,6.41,-1.29
2022-12-08 18:20:17.6910,-0.757,0.324,0.042,4.03,6.33,-1.45
2022-12-08 18:20:17.7010,-0.796,0.369,0.053,4.48,6.11,-1.55
2022-12-08 18:20:17.7110,-0.815,0.43,0.051,4.9,5.68,-1.62
2022-12-08 18:20:17.7210,-0.818,0.493,0.033,5.1,5.1,-1.53
2022-12-08 18:20:17.7310,-0.814,0.546,0.005,5.13,4.48,-1.28
2022-12-08 18:20:17.7410,-0.809,0.588,-0.015,5.09,3.97,-0.92
2022-12-08 18:20:17.7510,-0.817,0.639,-0.034,5.01,3.56,-0.62
2022-12-08 18:20:17.7610,-0.84,0.699,-0.054,5.07,3.06,-0.33
2022-12-08 18:20:17.7710,-0.859,0.742,-0.072,5.26,2.47,-0.02
2022-12-08 18:20:17.7810,-0.877,0.768,-0.087,5.42,2.04,0.28
2022-12-08 18:20:17.7910,-0.89,0.789,-0.108,5.56,1.78,0.56
2022-12-08 18:20:17.8010,-0.908,0.808,-0.135,5.66,1.57,0.91
2022-12-08 18:20:17.8110,-0.932,0.829,-0.175,5.8,1.37,1.34
2022-12-08 18:20:17.8210,-0.963,0.86,-0.222,5.99,1.15,1.9
2022-12-08 18:20:17.8310,-1.012,0.905,-0.275,6.24,0.83,2.54
2022-12-08 18:20:17.8410,-1.07,0.963,-0.329,6.67,0.36,3.23
2022-12-08 18:20:17.8520,-1.091,0.997,-0.384,7.17,-0.24,3.93
2022-12-08 18:20:17.8610,-1.05,0.986,-0.438,7.3,-0.63,4.64
2022-12-08 18:20:17.8720,-0.976,0.947,-0.494,6.81,-0.56,5.3
2022-12-08 18:20:17.8810,-0.897,0.893,-0.555,6.0,-0.23,5.98
2022-12-08 18:20:17.8920,-0.825,0.833,-0.613,5.15,0.26,6.66
2022-12-08 18:20:17.9010,-0.784,0.779,-0.652,4.38,0.82,7.29
2022-12-08 18:20:17.9120,-0.831,0.755,-0.656,3.94,1.33,7.67
2022-12-08 18:20:17.9210,-0.957,0.822,-0.627,4.36,1.56,7.67
2022-12-08 18:20:17.9310,-1.073,0.927,-0.571,5.56,0.89,7.3
2022-12-08 18:20:17.9420,-1.141,1.007,-0.504,6.65,-0.15,6.64
2022-12-08 18:20:17.9520,-1.164,1.061,-0.446,7.25,-0.94,5.85
2022-12-08 18:20:17.9620,-1.148,1.079,-0.4,7.38,-1.5,5.14
2022-12-08 18:20:17.9720,-1.12,1.054,-0.359,7.14,-1.71,4.55
2022-12-08 18:20:17.9820,-1.143,1.033,-0.335,6.76,-1.5,4.02
2022-12-08 18:20:17.9920,-1.195,1.025,-0.335,6.88,-1.34,3.68
2022-12-08 18:20:18.0020,-1.232,1.001,-0.348,7.26,-1.33,3.59
2022-12-08 18:20:18.0120,-1.265,0.998,-0.376,7.46,-1.18,3.66
2022-12-08 18:20:18.0220,-1.257,0.992,-0.41,7.59,-1.25,3.88
2022-12-08 18:20:18.0320,-1.215,0.97,-0.447,7.28,-1.32,4.17
2022-12-08 18:20:18.0420,-1.161,0.952,-0.478,6.63,-1.26,4.5
2022-12-08 18:20:18.0520,-1.105,0.936,-0.494,5.83,-1.26,4.76
2022-12-08 18:20:18.0620,-1.046,0.926,-0.498,5.0,-1.3,4.85
2022-12-08 18:20:18.0720,-0.99,0.926,-0.493,4.12,-1.44,4.8
2022-12-08 18:20:18.0820,-0.943,0.932,-0.473,3.27,-1.69,4.64
2022-12-08 18:20:18.0920,-0.903,0.945,-0.434,2.51,-2.03,4.29
2022-12-08 18:20:18.1020,-0.867,0.965,-0.389,1.82,-2.46,3.73
2022-12-08 18:20:18.1120,-0.828,0.991,-0.335,1.17,-2.98,3.09
2022-12-08 18:20:18.1220,-0.782,1.024,-0.274,0.52,-3.59,2.36
2022-12-08 18:20:18.1320,-0.727,1.055,-0.21,-0.19,-4.28,1.54
2022-12-08 18:20:18.1420,-0.69,1.076,-0.142,-0.97,-4.98,0.71
2022-12-08 18:20:18.1520,-0.636,1.085,-0.093,-1.54,-5.57,-0.16
2022-12-08 18:20:18.1620,-0.583,1.084,-0.046,-2.26,-6.05,-0.81
2022-12-08 18:20:18.1720,-0.554,1.081,-0.006,-2.95,-6.44,-1.41
2022-12-08 18:20:18.1820,-0.537,1.078,0.019,-3.39,-6.79,-1.92
2022-12-08 18:20:18.1920,-0.522,1.062,0.031,-3.69,-7.13,-2.25
2022-12-08 18:20:18.2020,-0.507,1.039,0.031,-3.96,-7.34,-2.4
2022-12-08 18:20:18.2120,-0.487,1.024,0.024,-4.22,-7.47,-2.41
2022-12-08 18:20:18.2220,-0.457,0.998,0.012,-4.51,-7.67,-2.31
2022-12-08 18:20:18.2320,-0.432,0.975,0.012,-4.9,-7.74,-2.14
2022-12-08 18:20:18.2420,-0.426,0.977,0.024,-5.22,-7.82,-2.07
2022-12-08 18:20:18.2520,-0.439,1.003,0.039,-5.34,-8.13,-2.11
2022-12-08 18:20:18.2630,-0.452,1.044,0.057,-5.27,-8.65,-2.18
2022-12-08 18:20:18.2720,-0.445,1.088,0.074,-5.18,-9.3,-2.28
2022-12-08 18:20:18.2820,-0.411,1.116,0.079,-5.28,-9.94,-2.38
2022-12-08 18:20:18.2930,-0.367,1.115,0.073,-5.64,-10.4,-2.38
2022-12-08 18:20:18.3020,-0.345,1.102,0.043,-6.08,-10.54,-2.26
2022-12-08 18:20:18.3120,-0.327,1.085,0.01,-6.31,-10.51,-1.94
2022-12-08 18:20:18.3220,-0.319,1.074,-0.025,-6.49,-10.42,-1.59
2022-12-08 18:20:18.3330,-0.359,1.106,-0.073,-6.58,-10.35,-1.24
2022-12-08 18:20:18.3430,-0.411,1.169,-0.112,-6.17,-10.66,-0.78
2022-12-08 18:20:18.3530,-0.389,1.186,-0.128,-5.67,-11.25,-0.41
2022-12-08 18:20:18.3630,-0.306,1.145,-0.12,-5.87,-11.38,-0.31
2022-12-08 18:20:18.3730,-0.237,1.095,-0.103,-6.68,-10.89,-0.45
2022-12-08 18:20:18.3830,-0.185,1.057,-0.095,-7.33,-10.29,-0.68
2022-12-08 18:20:18.3930,-0.164,1.025,-0.086,-7.82,-9.76,-0.84
2022-12-08 18:20:18.4030,-0.224,1.015,-0.077,-8.0,-9.24,-0.98
2022-12-08 18:20:18.4130,-0.34,1.047,-0.077,-7.37,-8.88,-1.13
2022-12-08 18:20:18.4230,-0.448,1.101,-0.071,-6.2,-8.92,-1.16
2022-12-08 18:20:18.4330,-0.541,1.145,-0.061,-5.08,-9.15,-1.23
2022-12-08 18:20:18.4430,-0.645,1.194,-0.045,-4.11,-9.26,-1.33
2022-12-08 18:20:18.4530,-0.747,1.238,-0.025,-3.02,-9.41,-1.47
2022-12-08 18:20:18.4630,-0.821,1.253,-0.003,-1.93,-9.5,-1.63
2022-12-08 18:20:18.4730,-0.872,1.244,0.017,-1.11,-9.3,-1.8
2022-12-08 18:20:18.4830,-0.91,1.222,0.032,-0.5,-8.86,-1.94
2022-12-08 18:20:18.4930,-0.944,1.187,0.039,-0.01,-8.29,-2.0
2022-12-08 18:20:18.5030,-0.966,1.142,0.042,0.47,-7.59,-2.0
2022-12-08 18:20:18.5130,-0.961,1.086,0.035,0.84,-6.81,-1.94
2022-12-08 18:20:18.5230,-0.931,1.028,0.012,0.96,-5.91,-1.79
2022-12-08 18:20:18.5330,-0.893,0.978,-0.026,0.84,-5.01,-1.49
2022-12-08 18:20:18.5430,-0.862,0.931,-0.079,0.68,-4.18,-1.04
2022-12-08 18:20:18.5530,-0.834,0.892,-0.139,0.59,-3.39,-0.45
2022-12-08 18:20:18.5630,-0.8,0.844,-0.199,0.55,-2.69,0.21
2022-12-08 18:20:18.5730,-0.774,0.792,-0.259,0.47,-1.91,0.85
2022-12-08 18:20:18.5830,-0.771,0.756,-0.303,0.48,-1.1,1.51
2022-12-08 18:20:18.5930,-0.769,0.723,-0.326,0.71,-0.46,1.99
2022-12-08 18:20:18.6030,-0.77,0.695,-0.328,0.98,0.13,2.26
2022-12-08 18:20:18.6130,-0.777,0.673,-0.316,1.28,0.67,2.33
2022-12-08 18:20:18.6230,-0.795,0.652,-0.294,1.64,1.13,2.26
2022-12-08 18:20:18.6330,-0.811,0.649,-0.26,2.12,1.55,2.08
2022-12-08 18:20:18.6440,-0.828,0.656,-0.23,2.56,1.79,1.79
2022-12-08 18:20:18.6530,-0.848,0.663,-0.203,3.02,1.91,1.53
2022-12-08 18:20:18.6630,-0.875,0.673,-0.174,3.51,2.02,1.31
2022-12-08 18:20:18.6730,-0.914,0.689,-0.145,4.06,2.08,1.05
2022-12-08 18:20:18.6840,-0.96,0.714,-0.122,4.74,2.07,0.81
2022-12-08 18:20:18.6940,-1.025,0.737,-0.104,5.47,1.96,0.63
2022-12-08 18:20:18.7040,-1.086,0.754,-0.094,6.38,1.85,0.49
2022-12-08 18:20:18.7140,-1.132,0.753,-0.094,7.25,1.79,0.44
2022-12-08 18:20:18.7240,-1.171,0.739,-0.104,7.96,1.89,0.5
2022-12-08 18:20:18.7340,-1.214,0.731,-0.117,8.57,2.11,0.65
2022-12-08 18:20:18.7440,-1.269,0.732,-0.13,9.21,2.26,0.85
2022-12-08 18:20:18.7540,-1.332,0.747,-0.144,9.94,2.3,1.05
2022-12-08 18:20:18.7640,-1.379,0.772,-0.161,10.71,2.19,1.28
2022-12-08 18:20:18.7740,-1.38,0.79,-0.186,11.29,1.97,1.54
2022-12-08 18:20:18.7840,-1.34,0.802,-0.218,11.38,1.82,1.91
2022-12-08 18:20:18.7940,-1.285,0.816,-0.255,11.04,1.7,2.35
2022-12-08 18:20:18.8040,-1.226,0.828,-0.297,10.51,1.57,2.84
2022-12-08 18:20:18.8140,-1.178,0.836,-0.341,9.92,1.44,3.39
2022-12-08 18:20:18.8240,-1.164,0.873,-0.392,9.42,1.34,3.96
2022-12-08 18:20:18.8340,-1.178,0.939,-0.428,9.23,0.97,4.58
2022-12-08 18:20:18.8440,-1.152,0.971,-0.453,9.31,0.29,5.05
2022-12-08 18:20:18.8540,-1.059,0.938,-0.482,8.97,-0.04,5.4
2022-12-08 18:20:18.8640,-0.946,0.879,-0.522,7.99,0.25,5.76
2022-12-08 18:20:18.8740,-0.854,0.811,-0.562,6.8,0.8,6.19
2022-12-08 18:20:18.8840,-0.813,0.743,-0.592,5.85,1.46,6.59
2022-12-08 18:20:18.8940,-0.849,0.702,-0.595,5.41,2.12,6.83
2022-12-08 18:20:18.9040,-0.957,0.714,-0.558,5.73,2.52,6.77
2022-12-08 18:20:18.9140,-1.078,0.765,-0.485,6.75,2.41,6.26
2022-12-08 18:20:18.9240,-1.189,0.833,-0.401,7.89,1.91,5.36
2022-12-08 18:20:18.9340,-1.292,0.906,-0.309,8.91,1.23,4.32
2022-12-08 18:20:18.9440,-1.363,0.952,-0.209,9.81,0.49,3.2
2022-12-08 18:20:18.9540,-1.383,0.976,-0.118,10.35,-0.01,2.01
2022-12-08 18:20:18.9640,-1.377,1.004,-0.059,10.35,-0.31,0.94
2022-12-08 18:20:18.9740,-1.372,1.049,-0.034,10.04,-0.68,0.22
2022-12-08 18:20:18.9840,-1.368,1.113,-0.047,9.71,-1.24,-0.11
2022-12-08 18:20:18.9940,-1.349,1.165,-0.103,9.35,-2.0,-0.02
2022-12-08 18:20:19.0040,-1.33,1.208,-0.185,8.82,-2.68,0.55
2022-12-08 18:20:19.0140,-1.283,1.234,-0.273,8.28,-3.29,1.39
2022-12-08 18:20:19.0240,-1.203,1.232,-0.347,7.45,-3.76,2.31
2022-12-08 18:20:19.0340,-1.116,1.21,-0.402,6.3,-3.97,3.09
2022-12-08 18:20:19.0440,-1.044,1.192,-0.445,5.08,-4.01,3.65
2022-12-08 18:20:19.0540,-0.984,1.175,-0.479,4.02,-4.11,4.08
2022-12-08 18:20:19.0640,-0.934,1.153,-0.498,3.09,-4.24,4.36
2022-12-08 18:20:19.0740,-0.899,1.131,-0.486,2.28,-4.33,4.44
2022-12-08 18:20:19.0840,-0.87,1.125,-0.444,1.64,-4.44,4.18
2022-12-08 18:20:19.0940,-0.832,1.123,-0.378,1.07,-4.72,3.58
2022-12-08 18:20:19.1050,-0.781,1.11,-0.299,0.44,-5.06,2.73
2022-12-08 18:20:19.1150,-0.733,1.092,-0.224,-0.3,-5.29,1.73
2022-12-08 18:20:19.1250,-0.698,1.069,-0.161,-0.99,-5.49,0.77
2022-12-08 18:20:19.1350,-0.664,1.061,-0.103,-1.54,-5.65,-0.05
2022-12-08 18:20:19.1450,-0.635,1.064,-0.036,-2.05,-5.98,-0.8
2022-12-08 18:20:19.1550,-0.603,1.052,0.03,-2.51,-6.41,-1.59
2022-12-08 18:20:19.1650,-0.555,1.023,0.089,-2.98,-6.71,-2.34
2022-12-08 18:20:19.1750,-0.5,0.995,0.139,-3.59,-6.83,-2.98
2022-12-08 18:20:19.1850,-0.45,0.967,0.175,-4.26,-6.96,-3.48
2022-12-08 18:20:19.1950,-0.415,0.942,0.193,-4.86,-7.06,-3.81
2022-12-08 18:20:19.2050,-0.385,0.914,0.197,-5.31,-7.19,-3.93
2022-12-08 18:20:19.2150,-0.359,0.882,0.188,-5.68,-7.26,-3.9
2022-12-08 18:20:19.2250,-0.338,0.849,0.171,-6.01,-7.27,-3.73
2022-12-08 18:20:19.2350,-0.322,0.846,0.16,-6.27,-7.24,-3.48
2022-12-08 18:20:19.2450,-0.313,0.868,0.163,-6.47,-7.48,-3.29
2022-12-08 18:20:19.2550,-0.307,0.902,0.164,-6.58,-7.95,-3.25
2022-12-08 18:20:19.2650,-0.286,0.933,0.164,-6.67,-8.5,-3.21
2022-12-08 18:20:19.2750,-0.254,0.955,0.16,-6.88,-8.99,-3.16
2022-12-08 18:20:19.2850,-0.216,0.977,0.151,-7.21,-9.37,-3.09
2022-12-08 18:20:19.2950,-0.178,0.992,0.131,-7.59,-9.7,-2.98
2022-12-08 18:20:19.3050,-0.154,0.988,0.095,-7.95,-9.91,-2.77
2022-12-08 18:20:19.3150,-0.161,0.976,0.042,-8.19,-9.88,-2.4
2022-12-08 18:20:19.3250,-0.227,0.988,-0.015,-8.12,-9.73,-1.86
2022-12-08 18:20:19.3350,-0.338,1.046,-0.065,-7.48,-9.76,-1.28
2022-12-08 18:20:19.3450,-0.44,1.111,-0.097,-6.4,-10.21,-0.76
2022-12-08 18:20:19.3550,-0.495,1.127,-0.109,-5.4,-10.7,-0.41
2022-12-08 18:20:19.3650,-0.512,1.104,-0.107,-4.87,-10.69,-0.25
2022-12-08 18:20:19.3750,-0.502,1.076,-0.112,-4.7,-10.28,-0.23
2022-12-08 18:20:19.3850,-0.489,1.045,-0.122,-4.78,-9.79,-0.14
2022-12-08 18:20:19.3950,-0.491,1.001,-0.143,-4.89,-9.24,0.0
2022-12-08 18:20:19.4050,-0.519,0.962,-0.177,-4.85,-8.55,0.25
2022-12-08 18:20:19.4150,-0.586,0.958,-0.212,-4.53,-7.88,0.62
2022-12-08 18:20:19.4250,-0.671,0.988,-0.237,-3.83,-7.54,0.99
2022-12-08 18:20:19.4360,-0.76,1.033,-0.247,-2.93,-7.52,1.27
2022-12-08 18:20:19.4450,-0.855,1.084,-0.223,-1.98,-7.66,1.37
2022-12-08 18:20:19.4550,-0.923,1.127,-0.177,-0.97,-7.87,1.15
2022-12-08 18:20:19.4660,-0.954,1.14,-0.119,-0.21,-8.0,0.69
2022-12-08 18:20:19.4760,-0.963,1.134,-0.06,0.2,-7.85,0.1
2022-12-08 18:20:19.4860,-0.96,1.134,-0.003,0.39,-7.51,-0.5
2022-12-08 18:20:19.4960,-0.946,1.129,0.05,0.48,-7.22,-1.08
2022-12-08 18:20:19.5060,-0.918,1.094,0.089,0.47,-6.9,-1.61
2022-12-08 18:20:19.5160,-0.883,1.048,0.107,0.34,-6.27,-1.99
2022-12-08 18:20:19.5260,-0.848,1.002,0.09,0.15,-5.52,-2.14
2022-12-08 18:20:19.5360,-0.82,0.958,0.029,-0.03,-4.77,-1.94
2022-12-08 18:20:19.5460,-0.8,0.925,-0.063,-0.12,-4.05,-1.28
2022-12-08 18:20:19.5560,-0.781,0.904,-0.166,-0.12,-3.44,-0.3
2022-12-08 18:20:19.5660,-0.755,0.884,-0.262,-0.11,-2.93,0.8
2022-12-08 18:20:19.5760,-0.722,0.855,-0.345,-0.15,-2.46,1.83
2022-12-08 18:20:19.5860,-0.692,0.817,-0.405,-0.25,-1.9,2.73
2022-12-08 18:20:19.5960,-0.683,0.783,-0.439,-0.29,-1.25,3.41
2022-12-08 18:20:19.6060,-0.699,0.754,-0.435,-0.12,-0.65,3.81
2022-12-08 18:20:19.6160,-0.733,0.727,-0.387,0.32,-0.1,3.81
2022-12-08 18:20:19.6260,-0.778,0.707,-0.317,0.95,0.43,3.36
2022-12-08 18:20:19.6360,-0.833,0.681,-0.244,1.7,0.87,2.69
2022-12-08 18:20:19.6460,-0.892,0.658,-0.175,2.56,1.35,1.97
2022-12-08 18:20:19.6560,-0.939,0.641,-0.117,3.46,1.8,1.29
2022-12-08 18:20:19.6660,-0.973,0.631,-0.073,4.23,2.15,0.7
2022-12-08 18:20:19.6760,-1.004,0.627,-0.042,4.87,2.43,0.26
2022-12-08 18:20:19.6860,-1.031,0.631,-0.02,5.47,2.61,-0.05
2022-12-08 18:20:19.6960,-1.055,0.638,-0.013,6.02,2.71,-0.26
2022-12-08 18:20:19.7060,-1.075,0.639,-0.016,6.52,2.75,-0.32
2022-12-08 18:20:19.7160,-1.092,0.642,-0.023,6.97,2.85,-0.28
2022-12-08 18:20:19.7260,-1.107,0.643,-0.034,7.37,2.91,-0.17
2022-12-08 18:20:19.7360,-1.127,0.653,-0.05,7.74,2.99,-0.01
2022-12-08 18:20:19.7460,-1.16,0.673,-0.071,8.15,2.96,0.21
2022-12-08 18:20:19.7560,-1.204,0.704,-0.1,8.65,2.82,0.5
2022-12-08 18:20:19.7660,-1.246,0.744,-0.139,9.25,2.56,0.88
2022-12-08 18:20:19.7770,-1.271,0.775,-0.188,9.8,2.2,1.37
2022-12-08 18:20:19.7860,-1.278,0.797,-0.239,10.15,1.92,1.98
2022-12-08 18:20:19.7970,-1.278,0.815,-0.288,10.3,1.72,2.61
2022-12-08 18:20:19.8060,-1.264,0.818,-0.334,10.37,1.56,3.21
2022-12-08 18:20:19.8170,-1.239,0.81,-0.38,10.26,1.53,3.8
2022-12-08 18:20:19.8260,-1.232,0.808,-0.425,10.03,1.61,4.38
2022-12-08 18:20:19.8370,-1.282,0.85,-0.467,9.96,1.62,4.93
2022-12-08 18:20:19.8470,-1.335,0.925,-0.503,10.41,1.19,5.44
2022-12-08 18:20:19.8570,-1.294,0.947,-0.526,10.88,0.43,5.86
2022-12-08 18:20:19.8670,-1.187,0.91,-0.53,10.39,0.19,6.14
2022-12-08 18:20:19.8770,-1.039,0.847,-0.54,9.25,0.53,6.18
2022-12-08 18:20:19.8870,-0.912,0.778,-0.541,7.7,1.13,6.25
2022-12-08 18:20:19.8970,-0.857,0.725,-0.513,6.36,1.78,6.18
2022-12-08 18:20:19.9070,-0.894,0.72,-0.456,5.74,2.29,5.78
2022-12-08 18:20:19.9170,-0.999,0.774,-0.384,6.04,2.34,5.05
2022-12-08 18:20:19.9270,-1.118,0.863,-0.301,7.0,1.8,4.13
2022-12-08 18:20:19.9370,-1.243,0.968,-0.213,8.08,0.91,3.08
2022-12-08 18:20:19.9470,-1.351,1.051,-0.111,9.19,-0.16,1.97
2022-12-08 18:20:19.9570,-1.39,1.081,-0.013,10.1,-1.03,0.74
2022-12-08 18:20:19.9670,-1.364,1.077,0.066,10.29,-1.4,-0.43
2022-12-08 18:20:19.9770,-1.322,1.081,0.111,9.8,-1.46,-1.36
2022-12-08 18:20:19.9870,-1.297,1.103,0.119,9.12,-1.62,-1.89
2022-12-08 18:20:19.9970,-1.267,1.123,0.068,8.58,-1.97,-2.0
2022-12-08 18:20:20.0070,-1.229,1.12,-0.029,7.97,-2.32,-1.47
2022-12-08 18:20:20.0170,-1.193,1.098,-0.145,7.27,-2.46,-0.44
2022-12-08 18:20:20.0270,-1.164,1.081,-0.261,6.59,-2.43,0.81
2022-12-08 18:20:20.0370,-1.132,1.067,-0.359,5.98,-2.46,2.07
2022-12-08 18:20:20.0470,-1.09,1.05,-0.43,5.34,-2.54,3.13
2022-12-08 18:20:20.0570,-1.048,1.034,-0.474,4.6,-2.62,3.9
2022-12-08 18:20:20.0670,-1.005,1.025,-0.483,3.87,-2.72,4.36
2022-12-08 18:20:20.0770,-0.959,1.024,-0.462,3.14,-2.92,4.44
2022-12-08 18:20:20.0870,-0.909,1.031,-0.424,2.37,-3.21,4.17
2022-12-08 18:20:20.0970,-0.857,1.038,-0.368,1.59,-3.61,3.69
2022-12-08 18:20:20.1070,-0.802,1.042,-0.297,0.8,-4.02,3.0
2022-12-08 18:20:20.1170,-0.744,1.036,-0.227,0.0,-4.42,2.14
2022-12-08 18:20:20.1270,-0.689,1.027,-0.161,-0.81,-4.73,1.27
2022-12-08 18:20:20.1370,-0.637,1.021,-0.108,-1.58,-5.02,0.44
2022-12-08 18:20:20.1470,-0.596,1.0,-0.069,-2.28,-5.34,-0.25
2022-12-08 18:20:20.1570,-0.564,0.981,-0.045,-2.85,-5.52,-0.8
2022-12-08 18:20:20.1670,-0.547,0.974,-0.029,-3.31,-5.71,-1.18
2022-12-08 18:20:20.1780,-0.545,0.968,-0.017,-3.62,-6.02,-1.47
2022-12-08 18:20:20.1870,-0.53,0.952,-0.005,-3.75,-6.33,-1.71
2022-12-08 18:20:20.1970,-0.49,0.936,0.014,-4.0,-6.55,-1.92
2022-12-08 18:20:20.2080,-0.43,0.921,0.05,-4.48,-6.76,-2.19
2022-12-08 18:20:20.2180,-0.378,0.882,0.095,-5.14,-6.95,-2.58
2022-12-08 18:20:20.2280,-0.34,0.847,0.131,-5.72,-6.9,-3.04
2022-12-08 18:20:20.2380,-0.311,0.836,0.158,-6.14,-6.85,-3.37
2022-12-08 18:20:20.2480,-0.306,0.834,0.172,-6.47,-7.01,-3.6
2022-12-08 18:20:20.2580,-0.329,0.843,0.168,-6.57,-7.24,-3.68
2022-12-08 18:20:20.2680,-0.369,0.875,0.139,-6.37,-7.53,-3.56
2022-12-08 18:20:20.2780,-0.389,0.92,0.098,-6.01,-8.05,-3.2
2022-12-08 18:20:20.2880,-0.386,0.961,0.063,-5.83,-8.66,-2.73
2022-12-08 18:20:20.2980,-0.37,0.995,0.034,-5.88,-9.2,-2.31
2022-12-08 18:20:20.3080,-0.346,1.012,0.007,-6.04,-9.64,-1.97
2022-12-08 18:20:20.3180,-0.299,1.003,-0.03,-6.29,-9.89,-1.65
2022-12-08 18:20:20.3280,-0.255,0.981,-0.077,-6.76,-9.84,-1.24
2022-12-08 18:20:20.3380,-0.284,0.998,-0.124,-7.2,-9.62,-0.73
2022-12-08 18:20:20.3480,-0.392,1.082,-0.159,-6.92,-9.74,-0.21
2022-12-08 18:20:20.3580,-0.476,1.137,-0.18,-5.88,-10.46,0.18
2022-12-08 18:20:20.3680,-0.479,1.112,-0.176,-5.05,-10.89,0.42
2022-12-08 18:20:20.3780,-0.427,1.076,-0.159,-5.02,-10.5,0.4
2022-12-08 18:20:20.3880,-0.397,1.067,-0.153,-5.52,-9.97,0.24
2022-12-08 18:20:20.3980,-0.383,1.052,-0.153,-5.79,-9.68,0.16
2022-12-08 18:20:20.4080,-0.395,1.031,-0.157,-5.91,-9.29,0.14
2022-12-08 18:20:20.4180,-0.456,1.037,-0.166,-5.76,-8.81,0.15
2022-12-08 18:20:20.4280,-0.544,1.074,-0.167,-5.11,-8.56,0.22
2022-12-08 18:20:20.4380,-0.636,1.121,-0.162,-4.18,-8.59,0.22
2022-12-08 18:20:20.4480,-0.728,1.172,-0.164,-3.2,-8.71,0.18
2022-12-08 18:20:20.4580,-0.838,1.229,-0.155,-2.21,-8.85,0.2
2022-12-08 18:20:20.4680,-0.949,1.266,-0.141,-1.01,-9.03,0.14
2022-12-08 18:20:20.4780,-1.019,1.251,-0.126,0.2,-9.02,0.03
2022-12-08 18:20:20.4880,-1.06,1.206,-0.106,1.03,-8.51,-0.08
2022-12-08 18:20:20.4980,-1.088,1.149,-0.088,1.58,-7.7,-0.23
2022-12-08 18:20:20.5080,-1.1,1.087,-0.068,2.03,-6.8,-0.37
2022-12-08 18:20:20.5180,-1.071,1.009,-0.05,2.32,-5.85,-0.52
2022-12-08 18:20:20.5280,-1.002,0.919,-0.042,2.22,-4.77,-0.66
2022-12-08 18:20:20.5390,-0.932,0.834,-0.045,1.74,-3.59,-0.7
2022-12-08 18:20:20.5480,-0.874,0.764,-0.059,1.24,-2.46,-0.65
2022-12-08 18:20:20.5580,-0.826,0.706,-0.087,0.88,-1.5,-0.48
2022-12-08 18:20:20.5680,-0.79,0.654,-0.121,0.63,-0.65,-0.19
2022-12-08 18:20:20.5790,-0.769,0.613,-0.156,0.51,0.11,0.16
2022-12-08 18:20:20.5890,-0.756,0.581,-0.187,0.53,0.77,0.5
2022-12-08 18:20:20.5980,-0.75,0.557,-0.204,0.64,1.32,0.81
2022-12-08 18:20:20.6090,-0.747,0.528,-0.202,0.84,1.79,0.95
2022-12-08 18:20:20.6190,-0.744,0.508,-0.183,1.06,2.29,0.91
2022-12-08 18:20:20.6290,-0.747,0.5,-0.151,1.29,2.69,0.7
2022-12-08 18:20:20.6390,-0.763,0.507,-0.117,1.57,2.96,0.35
2022-12-08 18:20:20.6490,-0.778,0.518,-0.079,1.98,3.06,-0.01
2022-12-08 18:20:20.6590,-0.799,0.524,-0.044,2.38,3.12,-0.4
2022-12-08 18:20:20.6690,-0.817,0.538,-0.012,2.82,3.2,-0.75
2022-12-08 18:20:20.6790,-0.839,0.556,0.009,3.24,3.21,-1.07
2022-12-08 18:20:20.6890,-0.87,0.581,0.016,3.69,3.16,-1.25
2022-12-08 18:20:20.6990,-0.916,0.617,0.016,4.23,3.03,-1.28
2022-12-08 18:20:20.7090,-0.964,0.648,0.001,4.89,2.8,-1.23
2022-12-08 18:20:20.7190,-1.004,0.666,-0.024,5.57,2.59,-1.03
2022-12-08 18:20:20.7290,-1.055,0.701,-0.056,6.17,2.51,-0.7
2022-12-08 18:20:20.7390,-1.123,0.752,-0.081,6.86,2.24,-0.31
2022-12-08 18:20:20.7490,-1.198,0.804,-0.105,7.7,1.82,0.04
2022-12-08 18:20:20.7590,-1.259,0.848,-0.128,8.59,1.38,0.38
2022-12-08 18:20:20.7690,-1.293,0.881,-0.154,9.32,0.99,0.73
2022-12-08 18:20:20.7790,-1.313,0.909,-0.189,9.77,0.71,1.13
2022-12-08 18:20:20.7890,-1.324,0.936,-0.233,10.06,0.47,1.61
2022-12-08 18:20:20.7990,-1.331,0.959,-0.287,10.24,0.23,2.19
2022-12-08 18:20:20.8090,-1.325,0.966,-0.35,10.36,0.02,2.88
2022-12-08 18:20:20.8190,-1.305,0.953,-0.412,10.34,-0.04,3.65
2022-12-08 18:20:20.8290,-1.316,0.96,-0.473,10.17,0.09,4.41
2022-12-08 18:20:20.8390,-1.344,0.996,-0.524,10.28,0.02,5.13
2022-12-08 18:20:20.8490,-1.323,0.999,-0.557,10.54,-0.35,5.73
2022-12-08 18:20:20.8590,-1.241,0.95,-0.576,10.29,-0.39,6.12
2022-12-08 18:20:20.8690,-1.137,0.894,-0.584,9.43,0.07,6.32
2022-12-08 18:20:20.8790,-1.023,0.825,-0.58,8.35,0.61,6.37
2022-12-08 18:20:20.8890,-0.943,0.756,-0.539,7.17,1.27,6.25
2022-12-08 18:20:20.8990,-0.953,0.744,-0.463,6.33,1.94,5.73
2022-12-08 18:20:20.9090,-1.033,0.799,-0.363,6.37,2.04,4.8
2022-12-08 18:20:20.9190,-1.12,0.871,-0.256,7.1,1.49,3.6
2022-12-08 18:20:20.9290,-1.198,0.935,-0.156,7.88,0.75,2.33
2022-12-08 18:20:20.9390,-1.254,0.97,-0.065,8.55,0.08,1.12
2022-12-08 18:20:20.9500,-1.271,0.956,0.011,8.97,-0.31,0.01
2022-12-08 18:20:20.9590,-1.258,0.924,0.057,8.98,-0.25,-0.9
2022-12-08 18:20:20.9690,-1.252,0.908,0.071,8.64,-0.02,-1.48
2022-12-08 18:20:20.9800,-1.257,0.917,0.048,8.35,0.02,-1.7
2022-12-08 18:20:20.9900,-1.258,0.933,-0.011,8.13,-0.19,-1.49
2022-12-08 18:20:21.0000,-1.265,0.961,-0.088,7.85,-0.48,-0.88
2022-12-08 18:20:21.0100,-1.255,0.999,-0.17,7.62,-0.92,-0.05
2022-12-08 18:20:21.0200,-1.191,1.008,-0.25,7.2,-1.47,0.84
2022-12-08 18:20:21.0300,-1.106,0.999,-0.328,6.24,-1.76,1.72
2022-12-08 18:20:21.0400,-1.023,0.987,-0.39,5.08,-1.9,2.56
2022-12-08 18:20:21.0500,-0.947,0.97,-0.427,3.93,-2.02,3.22
2022-12-08 18:20:21.0600,-0.874,0.953,-0.441,2.87,-2.12,3.6
2022-12-08 18:20:21.0700,-0.804,0.93,-0.432,1.86,-2.23,3.7
2022-12-08 18:20:21.0800,-0.744,0.912,-0.401,0.88,-2.29,3.53
2022-12-08 18:20:21.0900,-0.701,0.893,-0.353,0.03,-2.42,3.1
2022-12-08 18:20:21.1000,-0.66,0.878,-0.294,-0.64,-2.54,2.47
2022-12-08 18:20:21.1100,-0.629,0.865,-0.234,-1.27,-2.7,1.71
2022-12-08 18:20:21.1200,-0.612,0.86,-0.182,-1.78,-2.89,0.94
2022-12-08 18:20:21.1300,-0.593,0.858,-0.135,-2.14,-3.17,0.25
2022-12-08 18:20:21.1400,-0.579,0.849,-0.092,-2.49,-3.48,-0.37
2022-12-08 18:20:21.1500,-0.575,0.848,-0.056,-2.79,-3.73,-0.93
2022-12-08 18:20:21.1600,-0.568,0.855,-0.022,-2.99,-4.06,-1.4
2022-12-08 18:20:21.1700,-0.557,0.86,0.007,-3.2,-4.47,-1.81
2022-12-08 18:20:21.1800,-0.545,0.867,0.029,-3.44,-4.87,-2.12
2022-12-08 18:20:21.1900,-0.527,0.879,0.05,-3.7,-5.29,-2.34
2022-12-08 18:20:21.2000,-0.5,0.884,0.062,-4.0,-5.75,-2.5
2022-12-08 18:20:21.2100,-0.47,0.878,0.065,-4.38,-6.13,-2.55
2022-12-08 18:20:21.2200,-0.447,0.883,0.062,-4.77,-6.4,-2.48
2022-12-08 18:20:21.2300,-0.435,0.899,0.055,-5.08,-6.74,-2.34
2022-12-08 18:20:21.2400,-0.437,0.919,0.05,-5.28,-7.18,-2.15
2022-12-08 18:20:21.2500,-0.456,0.956,0.047,-5.31,-7.63,-1.99
2022-12-08 18:20:21.2600,-0.487,1.017,0.047,-5.17,-8.22,-1.85
2022-12-08 18:20:21.2700,-0.512,1.085,0.044,-4.91,-9.02,-1.75
2022-12-08 18:20:21.2800,-0.512,1.13,0.034,-4.69,-9.87,-1.64
2022-12-08 18:20:21.2900,-0.495,1.15,0.018,-4.71,-10.46,-1.47
2022-12-08 18:20:21.3000,-0.474,1.161,-0.005,-4.88,-10.77,-1.25
2022-12-08 18:20:21.3100,-0.472,1.173,-0.04,-5.1,-10.94,-0.97
2022-12-08 18:20:21.3200,-0.502,1.195,-0.082,-5.13,-11.09,-0.58
2022-12-08 18:20:21.3300,-0.537,1.207,-0.132,-4.84,-11.29,-0.12
2022-12-08 18:20:21.3400,-0.532,1.178,-0.187,-4.49,-11.37,0.41
2022-12-08 18:20:21.3510,-0.511,1.126,-0.24,-4.54,-11.0,0.98
2022-12-08 18:20:21.3600,-0.491,1.075,-0.293,-4.75,-10.37,1.54
2022-12-08 18:20:21.3710,-0.479,1.032,-0.351,-4.94,-9.72,2.09
2022-12-08 18:20:21.3810,-0.491,0.992,-0.403,-5.03,-9.1,2.68
2022-12-08 18:20:21.3910,-0.538,0.974,-0.437,-4.89,-8.5,3.21
2022-12-08 18:20:21.4010,-0.611,0.992,-0.448,-4.4,-8.09,3.55
2022-12-08 18:20:21.4110,-0.695,1.034,-0.413,-3.64,-8.01,3.66
2022-12-08 18:20:21.4210,-0.76,1.08,-0.339,-2.76,-8.15,3.3
2022-12-08 18:20:21.4310,-0.803,1.108,-0.249,-2.06,-8.33,2.55
2022-12-08 18:20:21.4410,-0.84,1.111,-0.159,-1.56,-8.31,1.63
2022-12-08 18:20:21.4510,-0.88,1.106,-0.072,-1.1,-8.04,0.69
2022-12-08 18:20:21.4610,-0.929,1.086,0.009,-0.6,-7.67,-0.22
2022-12-08 18:20:21.4710,-0.972,1.046,0.086,0.0,-7.16,-1.08
2022-12-08 18:20:21.4810,-0.995,0.987,0.15,0.55,-6.45,-1.89
2022-12-08 18:20:21.4910,-0.984,0.904,0.197,0.92,-5.57,-2.57
2022-12-08 18:20:21.5010,-0.933,0.81,0.219,0.97,-4.46,-3.06
2022-12-08 18:20:21.5110,-0.854,0.718,0.203,0.61,-3.25,-3.31
2022-12-08 18:20:21.5210,-0.781,0.648,0.153,0.0,-2.08,-3.17
2022-12-08 18:20:21.5310,-0.731,0.604,0.078,-0.55,-1.11,-2.69
2022-12-08 18:20:21.5410,-0.69,0.576,-0.012,-0.87,-0.43,-1.95
2022-12-08 18:20:21.5510,-0.645,0.553,-0.091,-1.09,0.11,-1.06
2022-12-08 18:20:21.5610,-0.607,0.538,-0.152,-1.34,0.58,-0.29
2022-12-08 18:20:21.5710,-0.579,0.523,-0.193,-1.52,0.97,0.31
2022-12-08 18:20:21.5810,-0.567,0.505,-0.213,-1.57,1.36,0.7
2022-12-08 18:20:21.5910,-0.566,0.491,-0.209,-1.46,1.78,0.89
2022-12-08 18:20:21.6010,-0.582,0.483,-0.183,-1.24,2.16,0.83
2022-12-08 18:20:21.6110,-0.619,0.494,-0.137,-0.82,2.47,0.56
2022-12-08 18:20:21.6210,-0.666,0.517,-0.085,-0.2,2.6,0.1
2022-12-08 18:20:21.6310,-0.711,0.539,-0.044,0.53,2.58,-0.42
2022-12-08 18:20:21.6410,-0.775,0.566,-0.006,1.23,2.57,-0.81
2022-12-08 18:20:21.6520,-0.87,0.62,0.027,2.12,2.49,-1.16
2022-12-08 18:20:21.6610,-0.976,0.694,0.052,3.32,2.15,-1.45
2022-12-08 18:20:21.6710,-1.071,0.755,0.064,4.61,1.58,-1.64
2022-12-08 18:20:21.6810,-1.142,0.786,0.059,5.79,1.12,-1.68
2022-12-08 18:20:21.6910,-1.178,0.79,0.031,6.71,0.95,-1.54
2022-12-08 18:20:21.7010,-1.2,0.78,-0.015,7.28,1.04,-1.17
2022-12-08 18:20:21.7110,-1.266,0.791,-0.062,7.7,1.24,-0.6
2022-12-08 18:20:21.7220,-1.38,0.837,-0.097,8.53,1.23,-0.03
2022-12-08 18:20:21.7310,-1.494,0.893,-0.125,9.82,0.85,0.45
2022-12-08 18:20:21.7410,-1.565,0.931,-0.16,11.06,0.36,0.85
2022-12-08 18:20:21.7520,-1.566,0.943,-0.207,11.86,0.03,1.34
2022-12-08 18:20:21.7620,-1.528,0.958,-0.255,11.93,-0.06,1.93
2022-12-08 18:20:21.7720,-1.474,0.984,-0.298,11.58,-0.2,2.55
2022-12-08 18:20:21.7820,-1.412,1.007,-0.331,11.04,-0.46,3.1
2022-12-08 18:20:21.7920,-1.353,1.036,-0.355,10.4,-0.7,3.55
2022-12-08 18:20:21.8020,-1.293,1.065,-0.368,9.77,-1.01,3.9
2022-12-08 18:20:21.8120,-1.218,1.067,-0.381,9.12,-1.32,4.13
2022-12-08 18:20:21.8220,-1.122,1.032,-0.398,8.31,-1.38,4.34
2022-12-08 18:20:21.8320,-1.004,0.969,-0.422,7.29,-1.08,4.56
2022-12-08 18:20:21.8420,-0.873,0.879,-0.449,6.07,-0.48,4.84
2022-12-08 18:20:21.8520,-0.758,0.773,-0.466,4.73,0.38,5.1
2022-12-08 18:20:21.8620,-0.688,0.68,-0.47,3.58,1.4,5.24
2022-12-08 18:20:21.8720,-0.697,0.631,-0.457,2.88,2.32,5.21
2022-12-08 18:20:21.8820,-0.774,0.645,-0.417,2.98,2.82,4.96
2022-12-08 18:20:21.8920,-0.849,0.675,-0.348,3.76,2.69,4.42
2022-12-08 18:20:21.9020,-0.907,0.684,-0.27,4.5,2.41,3.57
2022-12-08 18:20:21.9120,-0.956,0.688,-0.2,5.09,2.32,2.61
2022-12-08 18:20:21.9220,-0.986,0.676,-0.131,5.56,2.28,1.73
2022-12-08 18:20:21.9320,-1.004,0.654,-0.061,5.84,2.38,0.85
2022-12-08 18:20:21.9420,-1.025,0.627,-0.0,5.98,2.57,-0.01
2022-12-08 18:20:21.9520,-1.07,0.61,0.041,6.12,2.8,-0.76
2022-12-08 18:20:21.9620,-1.146,0.614,0.066,6.47,2.91,-1.27
2022-12-08 18:20:21.9720,-1.236,0.646,0.067,7.09,2.82,-1.57
2022-12-08 18:20:21.9820,-1.318,0.695,0.044,7.82,2.42,-1.59
2022-12-08 18:20:21.9920,-1.342,0.741,-0.008,8.43,1.85,-1.31
2022-12-08 18:20:22.0020,-1.316,0.771,-0.077,8.44,1.28,-0.71
2022-12-08 18:20:22.0120,-1.282,0.795,-0.149,7.93,0.86,0.09
2022-12-08 18:20:22.0220,-1.23,0.814,-0.22,7.32,0.46,0.95
2022-12-08 18:20:22.0320,-1.168,0.837,-0.293,6.51,0.09,1.81
2022-12-08 18:20:22.0420,-1.1,0.862,-0.37,5.6,-0.35,2.69
2022-12-08 18:20:22.0520,-1.031,0.885,-0.443,4.61,-0.83,3.57
2022-12-08 18:20:22.0620,-0.952,0.899,-0.503,3.62,-1.33,4.38
2022-12-08 18:20:22.0720,-0.878,0.901,-0.539,2.52,-1.76,5.01
2022-12-08 18:20:22.0830,-0.817,0.909,-0.548,1.49,-2.09,5.33
2022-12-08 18:20:22.0920,-0.768,0.932,-0.528,0.59,-2.5,5.32
2022-12-08 18:20:22.1020,-0.72,0.952,-0.469,-0.16,-3.06,4.97
2022-12-08 18:20:22.1120,-0.678,0.963,-0.386,-0.88,-3.59,4.19
2022-12-08 18:20:22.1230,-0.638,0.975,-0.296,-1.51,-4.04,3.16
2022-12-08 18:20:22.1330,-0.609,0.973,-0.216,-2.1,-4.5,2.04
2022-12-08 18:20:22.1430,-0.608,0.968,-0.153,-2.55,-4.81,1.04
2022-12-08 18:20:22.1530,-0.616,0.979,-0.106,-2.72,-5.1,0.24
2022-12-08 18:20:22.1630,-0.616,0.991,-0.063,-2.78,-5.54,-0.37
2022-12-08 18:20:22.1730,-0.614,0.993,-0.019,-2.91,-5.99,-0.88
2022-12-08 18:20:22.1830,-0.606,0.986,0.017,-3.05,-6.35,-1.37
2022-12-08 18:20:22.1930,-0.589,0.977,0.047,-3.25,-6.63,-1.73
2022-12-08 18:20:22.2030,-0.562,0.964,0.069,-3.53,-6.87,-1.99
2022-12-08 18:20:22.2130,-0.534,0.951,0.084,-3.89,-7.07,-2.13
2022-12-08 18:20:22.2230,-0.505,0.944,0.08,-4.26,-7.25,-2.18
2022-12-08 18:20:22.2330,-0.481,0.938,0.066,-4.62,-7.48,-2.03
2022-12-08 18:20:22.2430,-0.467,0.94,0.051,-4.91,-7.69,-1.79
2022-12-08 18:20:22.2530,-0.468,0.959,0.034,-5.1,-7.96,-1.54
2022-12-08 18:20:22.2630,-0.477,0.991,0.015,-5.13,-8.37,-1.26
2022-12-08 18:20:22.2730,-0.485,1.02,-0.005,-5.06,-8.88,-1.0
2022-12-08 18:20:22.2830,-0.484,1.036,-0.023,-5.01,-9.34,-0.74
2022-12-08 18:20:22.2930,-0.477,1.042,-0.038,-5.02,-9.64,-0.51
2022-12-08 18:20:22.3030,-0.457,1.038,-0.044,-5.1,-9.81,-0.34
2022-12-08 18:20:22.3130,-0.406,1.02,-0.028,-5.3,-9.86,-0.28
2022-12-08 18:20:22.3230,-0.387,1.024,-0.008,-5.8,-9.75,-0.44
2022-12-08 18:20:22.3330,-0.403,1.065,0.01,-5.99,-9.82,-0.67
2022-12-08 18:20:22.3430,-0.375,1.085,0.035,-5.83,-10.23,-0.9
2022-12-08 18:20:22.3530,-0.294,1.061,0.066,-6.09,-10.41,-1.2
2022-12-08 18:20:22.3630,-0.198,1.039,0.088,-6.88,-10.13,-1.59
2022-12-08 18:20:22.3730,-0.118,1.026,0.098,-7.81,-9.82,-1.9
2022-12-08 18:20:22.3830,-0.073,0.996,0.097,-8.58,-9.55,-2.1
2022-12-08 18:20:22.3930,-0.085,0.973,0.078,-9.0,-9.06,-2.18
2022-12-08 18:20:22.4030,-0.185,0.984,0.032,-8.85,-8.59,-2.07
2022-12-08 18:20:22.4130,-0.326,1.018,-0.025,-7.83,-8.41,-1.66
2022-12-08 18:20:22.4230,-0.446,1.056,-0.077,-6.39,-8.42,-1.13
2022-12-08 18:20:22.4330,-0.558,1.096,-0.122,-5.15,-8.44,-0.61
2022-12-08 18:20:22.4430,-0.661,1.139,-0.153,-3.98,-8.48,-0.14
2022-12-08 18:20:22.4530,-0.764,1.17,-0.164,-2.88,-8.52,0.22
2022-12-08 18:20:22.4630,-0.861,1.193,-0.158,-1.76,-8.45,0.39
2022-12-08 18:20:22.4730,-0.952,1.206,-0.136,-0.68,-8.28,0.41
2022-12-08 18:20:22.4830,-1.033,1.204,-0.108,0.36,-8.02,0.27
2022-12-08 18:20:22.4940,-1.103,1.183,-0.075,1.32,-7.63,0.08
2022-12-08 18:20:22.5030,-1.145,1.142,-0.041,2.17,-7.06,-0.16
2022-12-08 18:20:22.5140,-1.14,1.079,-0.005,2.77,-6.29,-0.42
2022-12-08 18:20:22.5240,-1.092,0.999,0.027,2.92,-5.35,-0.7
2022-12-08 18:20:22.5340,-1.028,0.919,0.04,2.66,-4.24,-0.95
2022-12-08 18:20:22.5440,-0.963,0.849,0.029,2.24,-3.15,-1.02
2022-12-08 18:20:22.5540,-0.917,0.787,-0.001,1.83,-2.17,-0.85
2022-12-08 18:20:22.5640,-0.887,0.73,-0.052,1.62,-1.27,-0.5
2022-12-08 18:20:22.5740,-0.865,0.686,-0.119,1.57,-0.44,0.03
2022-12-08 18:20:22.5840,-0.854,0.657,-0.185,1.6,0.25,0.73
2022-12-08 18:20:22.5940,-0.848,0.638,-0.246,1.75,0.78,1.4
2022-12-08 18:20:22.6040,-0.839,0.624,-0.291,1.96,1.2,2.01
2022-12-08 18:20:22.6140,-0.822,0.611,-0.312,2.13,1.55,2.45
2022-12-08 18:20:22.6240,-0.796,0.595,-0.314,2.23,1.89,2.64
2022-12-08 18:20:22.6340,-0.775,0.578,-0.294,2.25,2.23,2.62
2022-12-08 18:20:22.6440,-0.774,0.567,-0.255,2.33,2.58,2.38
2022-12-08 18:20:22.6540,-0.79,0.563,-0.204,2.6,2.87,1.95
2022-12-08 18:20:22.6640,-0.827,0.564,-0.147,3.05,3.06,1.39
2022-12-08 18:20:22.6740,-0.879,0.567,-0.101,3.7,3.2,0.78
2022-12-08 18:20:22.6840,-0.941,0.57,-0.067,4.49,3.31,0.28
2022-12-08 18:20:22.6940,-1.001,0.582,-0.038,5.36,3.4,-0.09
2022-12-08 18:20:22.7040,-1.05,0.593,-0.022,6.2,3.38,-0.39
2022-12-08 18:20:22.7140,-1.083,0.602,-0.014,6.92,3.35,-0.56
2022-12-08 18:20:22.7240,-1.107,0.607,-0.011,7.45,3.34,-0.64
2022-12-08 18:20:22.7340,-1.139,0.632,-0.005,7.87,3.36,-0.65
2022-12-08 18:20:22.7440,-1.188,0.678,-0.003,8.35,3.16,-0.67
2022-12-08 18:20:22.7540,-1.236,0.733,-0.004,8.95,2.76,-0.62
2022-12-08 18:20:22.7640,-1.26,0.798,-0.02,9.51,2.25,-0.52
2022-12-08 18:20:22.7740,-1.248,0.853,-0.057,9.81,1.63,-0.25
2022-12-08 18:20:22.7840,-1.216,0.888,-0.105,9.72,1.11,0.25
2022-12-08 18:20:22.7940,-1.175,0.918,-0.167,9.41,0.77,0.88
2022-12-08 18:20:22.8040,-1.115,0.931,-0.236,9.01,0.47,1.65
2022-12-08 18:20:22.8140,-1.044,0.907,-0.312,8.4,0.34,2.5
2022-12-08 18:20:22.8250,-0.996,0.877,-0.388,7.68,0.57,3.41
2022-12-08 18:20:22.8340,-1.019,0.896,-0.448,7.19,0.84,4.31
2022-12-08 18:20:22.8440,-1.081,0.948,-0.486,7.39,0.64,5.03
2022-12-08 18:20:22.8540,-1.085,0.941,-0.504,7.97,0.12,5.5
2022-12-08 18:20:22.8640,-1.034,0.871,-0.506,7.98,0.18,5.74
2022-12-08 18:20:22.8740,-0.97,0.806,-0.51,7.45,0.85,5.78
2022-12-08 18:20:22.8850,-0.921,0.74,-0.504,6.79,1.48,5.81
2022-12-08 18:20:22.8950,-0.894,0.665,-0.479,6.29,2.13,5.7
2022-12-08 18:20:22.9050,-0.921,0.616,-0.425,6.01,2.86,5.36
2022-12-08 18:20:22.9150,-1.007,0.628,-0.35,6.26,3.35,4.69
2022-12-08 18:20:22.9250,-1.106,0.681,-0.273,7.07,3.22,3.79
2022-12-08 18:20:22.9350,-1.23,0.767,-0.193,7.99,2.7,2.86
2022-12-08 18:20:22.9450,-1.346,0.855,-0.112,9.11,1.82,1.9
2022-12-08 18:20:22.9550,-1.397,0.905,-0.044,10.11,0.92,0.94
2022-12-08 18:20:22.9650,-1.39,0.937,0.001,10.43,0.36,0.13
2022-12-08 18:20:22.9750,-1.367,0.959,0.009,10.14,-0.04,-0.4
2022-12-08 18:20:22.9850,-1.368,0.993,-0.032,9.65,-0.36,-0.51
2022-12-08 18:20:22.9950,-1.38,1.034,-0.101,9.37,-0.82,-0.1
2022-12-08 18:20:23.0050,-1.387,1.063,-0.174,9.16,-1.37,0.64
2022-12-08 18:20:23.0150,-1.377,1.084,-0.25,8.91,-1.83,1.45
2022-12-08 18:20:23.0250,-1.345,1.095,-0.321,8.45,-2.23,2.31
2022-12-08 18:20:23.0350,-1.298,1.104,-0.371,7.77,-2.57,3.11
2022-12-08 18:20:23.0450,-1.24,1.106,-0.401,6.93,-2.92,3.7
2022-12-08 18:20:23.0550,-1.18,1.113,-0.414,5.98,-3.23,4.06
2022-12-08 18:20:23.0650,-1.117,1.136,-0.415,5.03,-3.62,4.21
2022-12-08 18:20:23.0750,-1.037,1.143,-0.401,4.03,-4.2,4.2
2022-12-08 18:20:23.0850,-0.955,1.145,-0.368,2.9,-4.63,3.98
2022-12-08 18:20:23.0950,-0.874,1.152,-0.321,1.76,-5.04,3.53
2022-12-08 18:20:23.1050,-0.791,1.137,-0.268,0.67,-5.49,2.9
2022-12-08 18:20:23.1150,-0.715,1.118,-0.216,-0.41,-5.74,2.19
2022-12-08 18:20:23.1250,-0.645,1.089,-0.173,-1.38,-5.94,1.48
2022-12-08 18:20:23.1350,-0.595,1.05,-0.134,-2.28,-6.04,0.86
2022-12-08 18:20:23.1450,-0.576,1.023,-0.098,-2.94,-6.03,0.29
2022-12-08 18:20:23.1550,-0.57,1.007,-0.069,-3.28,-6.13,-0.22
2022-12-08 18:20:23.1650,-0.56,0.984,-0.041,-3.47,-6.33,-0.62
2022-12-08 18:20:23.1750,-0.547,0.959,-0.015,-3.68,-6.46,-0.99
2022-12-08 18:20:23.1850,-0.532,0.945,0.01,-3.91,-6.56,-1.29
2022-12-08 18:20:23.1950,-0.507,0.936,0.039,-4.16,-6.76,-1.55
2022-12-08 18:20:23.2050,-0.468,0.918,0.067,-4.49,-7.0,-1.81
2022-12-08 18:20:23.2150,-0.43,0.889,0.086,-4.94,-7.14,-2.03
2022-12-08 18:20:23.2250,-0.401,0.863,0.099,-5.38,-7.15,-2.14
2022-12-08 18:20:23.2360,-0.384,0.843,0.103,-5.72,-7.16,-2.18
2022-12-08 18:20:23.2460,-0.386,0.833,0.103,-5.92,-7.21,-2.12
2022-12-08 18:20:23.2550,-0.4,0.847,0.099,-5.94,-7.34,-2.03
2022-12-08 18:20:23.2660,-0.412,0.876,0.091,-5.83,-7.66,-1.9
2022-12-08 18:20:23.2750,-0.412,0.908,0.084,-5.73,-8.13,-1.73
2022-12-08 18:20:23.2860,-0.399,0.936,0.075,-5.74,-8.59,-1.6
2022-12-08 18:20:23.2960,-0.38,0.953,0.06,-5.88,-9.0,-1.44
2022-12-08 18:20:23.3060,-0.36,0.956,0.041,-6.07,-9.26,-1.25
2022-12-08 18:20:23.3160,-0.341,0.949,0.02,-6.26,-9.35,-1.03
2022-12-08 18:20:23.3260,-0.309,0.938,0.006,-6.45,-9.31,-0.81
2022-12-08 18:20:23.3360,-0.296,0.954,-0.007,-6.77,-9.21,-0.66
2022-12-08 18:20:23.3460,-0.356,1.015,-0.015,-6.9,-9.33,-0.51
2022-12-08 18:20:23.3560,-0.394,1.057,-0.026,-6.31,-9.86,-0.4
2022-12-08 18:20:23.3660,-0.379,1.026,-0.044,-5.94,-10.19,-0.23
2022-12-08 18:20:23.3760,-0.372,0.995,-0.067,-6.08,-9.75,0.03
2022-12-08 18:20:23.3860,-0.406,1.002,-0.095,-6.15,-9.3,0.35
2022-12-08 18:20:23.3960,-0.443,0.985,-0.129,-5.81,-9.17,0.73
2022-12-08 18:20:23.4060,-0.481,0.94,-0.162,-5.42,-8.78,1.18
2022-12-08 18:20:23.4160,-0.554,0.928,-0.191,-5.03,-8.08,1.6
2022-12-08 18:20:23.4260,-0.665,0.968,-0.204,-4.27,-7.68,1.96
2022-12-08 18:20:23.4360,-0.78,1.026,-0.194,-3.13,-7.77,2.13
2022-12-08 18:20:23.4460,-0.864,1.073,-0.158,-1.94,-8.04,2.06
2022-12-08 18:20:23.4560,-0.92,1.115,-0.108,-1.05,-8.19,1.7
2022-12-08 18:20:23.4660,-0.956,1.15,-0.051,-0.43,-8.3,1.18
2022-12-08 18:20:23.4760,-0.974,1.16,0.009,0.02,-8.34,0.57
2022-12-08 18:20:23.4860,-0.969,1.143,0.062,0.29,-8.13,-0.09
2022-12-08 18:20:23.4960,-0.958,1.113,0.104,0.36,-7.66,-0.68
2022-12-08 18:20:23.5060,-0.949,1.072,0.136,0.38,-7.06,-1.17
2022-12-08 18:20:23.5160,-0.938,1.017,0.156,0.43,-6.34,-1.55
2022-12-08 18:20:23.5260,-0.92,0.955,0.154,0.48,-5.49,-1.81
2022-12-08 18:20:23.5360,-0.885,0.893,0.119,0.47,-4.58,-1.85
2022-12-08 18:20:23.5460,-0.847,0.84,0.053,0.29,-3.68,-1.55
2022-12-08 18:20:23.5560,-0.817,0.8,-0.037,0.11,-2.88,-0.95
2022-12-08 18:20:23.5660,-0.784,0.765,-0.125,0.01,-2.2,-0.1
2022-12-08 18:20:23.5760,-0.738,0.733,-0.198,-0.13,-1.59,0.74
2022-12-08 18:20:23.5860,-0.691,0.706,-0.263,-0.37,-1.02,1.42
2022-12-08 18:20:23.5960,-0.653,0.686,-0.307,-0.61,-0.49,2.03
2022-12-08 18:20:23.6060,-0.632,0.669,-0.327,-0.75,-0.04,2.42
2022-12-08 18:20:23.6160,-0.641,0.662,-0.323,-0.71,0.38,2.58
2022-12-08 18:20:23.6270,-0.678,0.662,-0.287,-0.35,0.7,2.48
2022-12-08 18:20:23.6370,-0.725,0.649,-0.22,0.3,0.94,2.07
2022-12-08 18:20:23.6460,-0.763,0.635,-0.139,1.06,1.3,1.36
2022-12-08 18:20:23.6570,-0.799,0.633,-0.065,1.72,1.67,0.52
2022-12-08 18:20:23.6670,-0.861,0.652,-0.004,2.37,1.89,-0.22
2022-12-08 18:20:23.6770,-0.932,0.678,0.04,3.26,1.88,-0.81
2022-12-08 18:20:23.6870,-0.98,0.693,0.06,4.24,1.8,-1.2
2022-12-08 18:20:23.6970,-1.021,0.71,0.056,4.96,1.81,-1.33
2022-12-08 18:20:23.7070,-1.057,0.731,0.031,5.62,1.78,-1.2
2022-12-08 18:20:23.7170,-1.086,0.754,-0.02,6.2,1.69,-0.84
2022-12-08 18:20:23.7270,-1.096,0.768,-0.088,6.71,1.57,-0.22
2022-12-08 18:20:23.7370,-1.099,0.763,-0.152,7.03,1.53,0.59
2022-12-08 18:20:23.7470,-1.121,0.758,-0.199,7.28,1.68,1.35
2022-12-08 18:20:23.7570,-1.186,0.778,-0.228,7.71,1.8,1.94
2022-12-08 18:20:23.7670,-1.276,0.817,-0.241,8.56,1.68,2.35
2022-12-08 18:20:23.7770,-1.35,0.846,-0.255,9.63,1.35,2.61
2022-12-08 18:20:23.7870,-1.396,0.855,-0.28,10.53,1.11,2.87
2022-12-08 18:20:23.7970,-1.414,0.848,-0.312,11.13,1.06,3.24
2022-12-08 18:20:23.8070,-1.407,0.831,-0.348,11.43,1.16,3.67
2022-12-08 18:20:23.8170,-1.389,0.815,-0.382,11.46,1.34,4.13
2022-12-08 18:20:23.8270,-1.399,0.818,-0.403,11.35,1.51,4.54
2022-12-08 18:20:23.8370,-1.449,0.858,-0.411,11.51,1.49,4.82
2022-12-08 18:20:23.8470,-1.45,0.874,-0.414,12.02,1.1,4.94
2022-12-08 18:20:23.8570,-1.36,0.819,-0.415,12.04,0.94,4.99
2022-12-08 18:20:23.8670,-1.269,0.756,-0.401,11.15,1.48,4.99
2022-12-08 18:20:23.8770,-1.173,0.698,-0.403,10.22,2.09,4.83
2022-12-08 18:20:23.8870,-1.1,0.634,-0.384,9.25,2.66,4.78
2022-12-08 18:20:23.8970,-1.07,0.595,-0.358,8.48,3.28,4.51
2022-12-08 18:20:23.9070,-1.112,0.596,-0.312,8.15,3.66,4.12
2022-12-08 18:20:23.9170,-1.192,0.646,-0.24,8.5,3.65,3.5
2022-12-08 18:20:23.9270,-1.273,0.716,-0.157,9.2,3.15,2.62
2022-12-08 18:20:23.9370,-1.37,0.801,-0.072,9.87,2.43,1.61
2022-12-08 18:20:23.9470,-1.458,0.886,0.002,10.67,1.55,0.6
2022-12-08 18:20:23.9570,-1.492,0.943,0.056,11.33,0.65,-0.28
2022-12-08 18:20:23.9670,-1.48,0.996,0.069,11.0,-0.63,-1.08
2022-12-08 18:20:23.9790,-1.451,1.058,0.032,11.0,-0.63,-1.08
2022-12-08 18:20:23.9870,-1.435,1.117,-0.051,10.38,-1.37,-0.7
2022-12-08 18:20:23.9980,-1.427,1.17,-0.153,9.87,-2.11,0.17
2022-12-08 18:20:24.0070,-1.391,1.21,-0.259,9.42,-2.81,1.29
2022-12-08 18:20:24.0170,-1.335,1.233,-0.349,8.68,-3.41,2.45
2022-12-08 18:20:24.0280,-1.268,1.247,-0.417,7.74,-3.88,3.45
2022-12-08 18:20:24.0380,-1.186,1.242,-0.457,6.69,-4.29,4.22
2022-12-08 18:20:24.0480,-1.101,1.222,-0.473,5.51,-4.53,4.69
2022-12-08 18:20:24.0580,-1.03,1.208,-0.476,4.31,-4.64,4.87
2022-12-08 18:20:24.0680,-0.966,1.197,-0.47,3.26,-4.83,4.88
2022-12-08 18:20:24.0780,-0.897,1.176,-0.444,2.29,-5.07,4.75
2022-12-08 18:20:24.0880,-0.829,1.151,-0.39,1.29,-5.22,4.37
2022-12-08 18:20:24.0980,-0.768,1.142,-0.323,0.33,-5.34,3.7
2022-12-08 18:20:24.1080,-0.707,1.124,-0.262,-0.53,-5.62,2.86
2022-12-08 18:20:24.1180,-0.654,1.083,-0.209,-1.36,-5.81,2.08
2022-12-08 18:20:24.1280,-0.622,1.046,-0.165,-2.08,-5.77,1.37
2022-12-08 18:20:24.1380,-0.608,1.019,-0.126,-2.58,-5.77,0.78
2022-12-08 18:20:24.1480,-0.609,0.997,-0.096,-2.88,-5.85,0.25
2022-12-08 18:20:24.1580,-0.611,0.982,-0.069,-3.02,-6.0,-0.16
2022-12-08 18:20:24.1680,-0.604,0.966,-0.048,-3.13,-6.21,-0.49
2022-12-08 18:20:24.1780,-0.589,0.947,-0.036,-3.31,-6.42,-0.74
2022-12-08 18:20:24.1880,-0.559,0.942,-0.016,-3.58,-6.58,-0.86
2022-12-08 18:20:24.1980,-0.515,0.938,0.009,-3.98,-6.9,-1.03
2022-12-08 18:20:24.2080,-0.47,0.915,0.028,-4.49,-7.21,-1.21
2022-12-08 18:20:24.2180,-0.433,0.892,0.04,-5.0,-7.33,-1.31
2022-12-08 18:20:24.2280,-0.411,0.877,0.048,-5.43,-7.42,-1.33
2022-12-08 18:20:24.2380,-0.399,0.872,0.055,-5.7,-7.57,-1.3
2022-12-08 18:20:24.2480,-0.395,0.882,0.059,-5.85,-7.81,-1.25
2022-12-08 18:20:24.2580,-0.4,0.91,0.058,-5.91,-8.16,-1.17
2022-12-08 18:20:24.2680,-0.398,0.949,0.057,-5.88,-8.68,-1.07
2022-12-08 18:20:24.2780,-0.376,0.973,0.051,-5.9,-9.28,-0.95
2022-12-08 18:20:24.2880,-0.345,0.985,0.046,-6.12,-9.7,-0.82
2022-12-08 18:20:24.2980,-0.315,0.991,0.039,-6.42,-9.98,-0.7
2022-12-08 18:20:24.3080,-0.285,0.987,0.023,-6.72,-10.16,-0.57
2022-12-08 18:20:24.3180,-0.262,0.977,0.0,-7.0,-10.21,-0.38
2022-12-08 18:20:24.3280,-0.26,0.962,-0.034,-7.23,-10.15,-0.12
2022-12-08 18:20:24.3380,-0.308,0.971,-0.07,-7.25,-9.99,0.22
2022-12-08 18:20:24.3480,-0.375,1.002,-0.099,-6.78,-10.03,0.58
2022-12-08 18:20:24.3580,-0.394,0.997,-0.115,-6.12,-10.25,0.86
2022-12-08 18:20:24.3680,-0.363,0.941,-0.126,-5.95,-10.09,0.99
2022-12-08 18:20:24.3780,-0.341,0.893,-0.14,-6.25,-9.39,1.06
2022-12-08 18:20:24.3880,-0.355,0.876,-0.149,-6.46,-8.75,1.16
2022-12-08 18:20:24.3980,-0.39,0.873,-0.151,-6.33,-8.38,1.21
2022-12-08 18:20:24.4080,-0.445,0.886,-0.152,-5.97,-8.11,1.18
2022-12-08 18:20:24.4180,-0.508,0.921,-0.154,-5.42,-7.97,1.15
2022-12-08 18:20:24.4290,-0.572,0.971,-0.151,-4.78,-8.02,1.13
2022-12-08 18:20:24.4390,-0.639,1.043,-0.146,-4.11,-8.22,1.07
2022-12-08 18:20:24.4490,-0.708,1.13,-0.129,-3.4,-8.6,0.99
2022-12-08 18:20:24.4590,-0.761,1.203,-0.098,-2.66,-9.12,0.79
2022-12-08 18:20:24.4690,-0.804,1.248,-0.056,-2.06,-9.48,0.45
2022-12-08 18:20:24.4790,-0.846,1.265,-0.011,-1.54,-9.55,0.01
2022-12-08 18:20:24.4890,-0.895,1.259,0.025,-1.0,-9.31,-0.46
2022-12-08 18:20:24.4990,-0.95,1.238,0.047,-0.36,-8.84,-0.85
2022-12-08 18:20:24.5090,-0.998,1.193,0.057,0.35,-8.22,-1.1
2022-12-08 18:20:24.5190,-1.038,1.128,0.057,1.02,-7.36,-1.23
2022-12-08 18:20:24.5290,-1.061,1.047,0.046,1.63,-6.3,-1.24
2022-12-08 18:20:24.5390,-1.064,0.962,0.022,2.1,-5.11,-1.15
2022-12-08 18:20:24.5490,-1.047,0.883,-0.016,2.37,-3.91,-0.92
2022-12-08 18:20:24.5590,-1.012,0.808,-0.068,2.45,-2.78,-0.54
2022-12-08 18:20:24.5690,-0.98,0.742,-0.123,2.37,-1.72,-0.02
2022-12-08 18:20:24.5790,-0.952,0.696,-0.172,2.3,-0.77,0.54
2022-12-08 18:20:24.5890,-0.92,0.661,-0.214,2.28,-0.05,1.04
2022-12-08 18:20:24.5990,-0.878,0.622,-0.246,2.21,0.54,1.48
2022-12-08 18:20:24.6090,-0.841,0.591,-0.261,2.04,1.15,1.81
2022-12-08 18:20:24.6190,-0.821,0.583,-0.261,1.91,1.67,1.97
2022-12-08 18:20:24.6290,-0.816,0.587,-0.24,1.96,1.95,1.98
2022-12-08 18:20:24.6390,-0.826,0.599,-0.201,2.14,2.09,1.78
2022-12-08 18:20:24.6490,-0.85,0.62,-0.161,2.48,2.14,1.41
2022-12-08 18:20:24.6590,-0.878,0.642,-0.126,2.94,2.09,1.03
2022-12-08 18:20:24.6690,-0.902,0.663,-0.098,3.43,2.02,0.7
2022-12-08 18:20:24.6790,-0.918,0.681,-0.079,3.89,1.94,0.46
2022-12-08 18:20:24.6890,-0.93,0.696,-0.074,4.25,1.89,0.32
2022-12-08 18:20:24.6990,-0.942,0.713,-0.084,4.57,1.85,0.32
2022-12-08 18:20:24.7090,-0.958,0.721,-0.108,4.89,1.79,0.47
2022-12-08 18:20:24.7190,-0.979,0.723,-0.141,5.23,1.81,0.78
2022-12-08 18:20:24.7290,-1.006,0.726,-0.167,5.63,1.87,1.16
2022-12-08 18:20:24.7400,-1.058,0.737,-0.171,6.09,1.93,1.48
2022-12-08 18:20:24.7490,-1.132,0.764,-0.159,6.79,1.89,1.57
2022-12-08 18:20:24.7590,-1.204,0.808,-0.139,7.68,1.7,1.49
2022-12-08 18:20:24.7700,-1.252,0.841,-0.118,8.55,1.33,1.35
2022-12-08 18:20:24.7800,-1.264,0.852,-0.101,9.16,1.05,1.2
2022-12-08 18:20:24.7900,-1.246,0.85,-0.094,9.39,0.97,1.1
2022-12-08 18:20:24.8000,-1.215,0.844,-0.105,9.32,1.02,1.1
2022-12-08 18:20:24.8100,-1.2,0.844,-0.133,9.11,1.11,1.29
2022-12-08 18:20:24.8200,-1.225,0.853,-0.178,9.05,1.13,1.66
2022-12-08 18:20:24.8300,-1.292,0.902,-0.229,9.36,1.06,2.19
2022-12-08 18:20:24.8400,-1.309,0.936,-0.277,10.07,0.59,2.79
2022-12-08 18:20:24.8500,-1.244,0.885,-0.324,10.27,0.26,3.35
2022-12-08 18:20:24.8600,-1.166,0.815,-0.378,9.67,0.76,3.89
2022-12-08 18:20:24.8700,-1.114,0.764,-0.429,8.93,1.45,4.48
2022-12-08 18:20:24.8800,-1.071,0.699,-0.46,8.45,1.96,5.0
2022-12-08 18:20:24.8900,-1.06,0.636,-0.47,8.06,2.6,5.3
2022-12-08 18:20:24.9000,-1.113,0.62,-0.455,7.97,3.23,5.34
2022-12-08 18:20:24.9100,-1.209,0.673,-0.396,8.49,3.4,5.09
2022-12-08 18:20:24.9200,-1.293,0.748,-0.303,9.42,2.88,4.36
2022-12-08 18:20:24.9300,-1.356,0.817,-0.201,10.2,2.15,3.28
2022-12-08 18:20:24.9400,-1.384,0.856,-0.106,10.74,1.45,2.09
2022-12-08 18:20:24.9500,-1.396,0.866,-0.026,10.9,1.04,0.98
2022-12-08 18:20:24.9600,-1.397,0.871,0.025,10.87,0.89,0.04
2022-12-08 18:20:24.9700,-1.395,0.884,0.039,10.68,0.78,-0.56
2022-12-08 18:20:24.9800,-1.391,0.908,0.009,10.43,0.57,-0.76
2022-12-08 18:20:24.9900,-1.379,0.942,-0.061,10.11,0.24,-0.47
2022-12-08 18:20:25.0000,-1.364,0.984,-0.148,9.7,-0.22,0.24
2022-12-08 18:20:25.0100,-1.341,1.037,-0.234,9.21,-0.78,1.15
2022-12-08 18:20:25.0200,-1.288,1.083,-0.311,8.63,-1.47,2.08
2022-12-08 18:20:25.0300,-1.206,1.11,-0.366,7.73,-2.13,2.91
2022-12-08 18:20:25.0400,-1.107,1.113,-0.405,6.55,-2.63,3.51
2022-12-08 18:20:25.0500,-1.004,1.105,-0.43,5.18,-2.92,3.93
2022-12-08 18:20:25.0600,-0.91,1.101,-0.44,3.79,-3.13,4.17
2022-12-08 18:20:25.0700,-0.826,1.092,-0.432,2.5,-3.39,4.22
2022-12-08 18:20:25.0800,-0.759,1.083,-0.406,1.33,-3.62,4.05
2022-12-08 18:20:25.0900,-0.707,1.075,-0.366,0.35,-3.87,3.67
2022-12-08 18:20:25.1000,-0.668,1.067,-0.321,-0.47,-4.12,3.12
2022-12-08 18:20:25.1100,-0.625,1.068,-0.276,-1.13,-4.39,2.51
2022-12-08 18:20:25.1210,-0.579,1.058,-0.235,-1.8,-4.76,1.89
2022-12-08 18:20:25.1310,-0.538,1.042,-0.193,-2.48,-5.02,1.31
2022-12-08 18:20:25.1410,-0.509,1.027,-0.157,-3.08,-5.2,0.75
2022-12-08 18:20:25.1500,-0.49,1.013,-0.127,-3.54,-5.4,0.26
2022-12-08 18:20:25.1610,-0.479,1.004,-0.102,-3.89,-5.61,-0.13
2022-12-08 18:20:25.1710,-0.473,0.994,-0.081,-4.15,-5.86,-0.45
2022-12-08 18:20:25.1810,-0.469,0.987,-0.066,-4.34,-6.09,-0.7
2022-12-08 18:20:25.1910,-0.459,0.981,-0.048,-4.51,-6.35,-0.86
2022-12-08 18:20:25.2010,-0.44,0.975,-0.03,-4.72,-6.61,-1.01
