time,gFx,gFy,gFz,ax,ay,az
2022-12-08 18:25:03.7610,0.032,-0.366,-0.907,-0.08,0.15,-0.2
2022-12-08 18:26:01.0910,0.034,-0.373,-0.914,-0.21,0.13,-0.29
2022-12-08 18:26:01.1000,0.028,-0.374,-0.906,-0.18,0.2,-0.3
2022-12-08 18:26:01.1100,0.021,-0.369,-0.897,-0.18,0.2,-0.3
2022-12-08 18:26:01.1200,0.01,-0.361,-0.896,-0.11,0.16,-0.38
2022-12-08 18:26:01.1280,0.02,-0.365,-0.888,-0.01,0.09,-0.4
2022-12-08 18:26:01.1380,0.021,-0.361,-0.886,-0.12,0.1,-0.51
2022-12-08 18:26:01.1500,0.015,-0.354,-0.9,-0.12,0.1,-0.51
2022-12-08 18:26:01.1580,0.014,-0.355,-0.912,-0.07,0.06,-0.38
2022-12-08 18:26:01.1680,0.021,-0.361,-0.915,-0.06,0.08,-0.26
2022-12-08 18:26:01.1780,0.024,-0.359,-0.91,-0.13,0.14,-0.24
2022-12-08 18:26:01.1880,0.026,-0.357,-0.907,-0.16,0.13,-0.29
2022-12-08 18:26:01.1980,0.027,-0.358,-0.906,-0.18,0.12,-0.32
2022-12-08 18:26:01.2080,0.026,-0.359,-0.9,-0.19,0.15,-0.34
2022-12-08 18:26:01.2180,0.027,-0.36,-0.898,-0.19,0.17,-0.39
2022-12-08 18:26:01.2280,0.023,-0.362,-0.897,-0.19,0.19,-0.43
2022-12-08 18:26:01.2380,0.019,-0.368,-0.903,-0.16,0.24,-0.44
2022-12-08 18:26:01.2480,0.017,-0.37,-0.911,-0.12,0.31,-0.39
2022-12-08 18:26:01.2580,0.019,-0.368,-0.921,-0.11,0.35,-0.31
2022-12-08 18:26:01.2680,0.028,-0.363,-0.928,-0.12,0.36,-0.22
2022-12-08 18:26:01.2800,0.036,-0.356,-0.926,-0.22,0.32,-0.16
2022-12-08 18:26:01.2880,0.032,-0.354,-0.917,-0.3,0.27,-0.19
2022-12-08 18:26:01.2980,0.025,-0.362,-0.908,-0.19,0.36,-0.37
2022-12-08 18:26:01.3100,0.022,-0.366,-0.904,-0.19,0.36,-0.37
2022-12-08 18:26:01.3180,0.022,-0.364,-0.898,-0.17,0.41,-0.42
2022-12-08 18:26:01.3280,0.02,-0.366,-0.894,-0.17,0.41,-0.48
2022-12-08 18:26:01.3380,0.014,-0.367,-0.894,-0.15,0.44,-0.53
2022-12-08 18:26:01.3480,0.009,-0.374,-0.892,-0.09,0.47,-0.53
2022-12-08 18:26:01.3580,-0.017,-0.374,-0.889,-0.05,0.57,-0.56
2022-12-08 18:26:01.3680,-0.045,-0.361,-0.892,0.2,0.59,-0.6
2022-12-08 18:26:01.3780,-0.052,-0.368,-0.913,0.5,0.58,-0.38
2022-12-08 18:26:01.3900,-0.063,-0.374,-0.931,0.5,0.58,-0.38
2022-12-08 18:26:01.3980,-0.081,-0.356,-0.929,0.59,0.67,-0.21
2022-12-08 18:26:01.4080,-0.087,-0.342,-0.916,0.74,0.52,-0.24
2022-12-08 18:26:01.4180,-0.092,-0.336,-0.898,0.79,0.41,-0.38
2022-12-08 18:26:01.4280,-0.096,-0.334,-0.869,0.83,0.37,-0.56
2022-12-08 18:26:01.4380,-0.113,-0.334,-0.847,0.88,0.38,-0.85
2022-12-08 18:26:01.4480,-0.112,-0.357,-0.827,1.04,0.4,-1.08
2022-12-08 18:26:01.4580,-0.116,-0.382,-0.81,1.04,0.65,-1.28
2022-12-08 18:26:01.4680,-0.127,-0.384,-0.794,1.06,0.92,-1.46
2022-12-08 18:26:01.4780,-0.127,-0.384,-0.802,1.16,0.97,-1.62
2022-12-08 18:26:01.4880,-0.128,-0.377,-0.842,1.13,1.0,-1.55
2022-12-08 18:26:01.4980,-0.137,-0.369,-0.893,1.11,0.97,-1.17
2022-12-08 18:26:01.5080,-0.139,-0.356,-0.935,1.15,0.95,-0.68
2022-12-08 18:26:01.5190,-0.133,-0.34,-0.97,1.14,0.89,-0.29
2022-12-08 18:26:01.5280,-0.12,-0.319,-1.001,1.05,0.79,0.03
2022-12-08 18:26:01.5390,-0.119,-0.328,-1.035,0.89,0.66,0.32
2022-12-08 18:26:01.5490,-0.123,-0.343,-1.053,0.85,0.81,0.64
2022-12-08 18:26:01.5590,-0.132,-0.336,-1.038,0.84,1.01,0.8
2022-12-08 18:26:01.5690,-0.126,-0.316,-1.016,0.89,0.98,0.65
2022-12-08 18:26:01.5790,-0.121,-0.307,-0.977,0.79,0.82,0.43
2022-12-08 18:26:01.5890,-0.137,-0.252,-0.916,0.67,0.77,0.04
2022-12-08 18:26:01.5990,-0.153,-0.165,-0.878,0.73,0.26,-0.56
2022-12-08 18:26:01.6090,-0.224,-0.28,-0.902,0.81,-0.55,-0.94
2022-12-08 18:26:01.6190,-0.241,-0.316,-0.875,1.45,0.62,-0.7
2022-12-08 18:26:01.6290,-0.199,-0.262,-0.838,1.57,1.04,-0.98
2022-12-08 18:26:01.6390,-0.212,-0.239,-0.825,1.17,0.42,-1.49
2022-12-08 18:26:01.6510,-0.227,-0.24,-0.828,1.17,0.42,-1.49
2022-12-08 18:26:01.6590,-0.224,-0.218,-0.821,1.27,0.49,-1.47
2022-12-08 18:26:01.6690,-0.201,-0.229,-0.802,1.18,0.34,-1.54
2022-12-08 18:26:01.6810,-0.163,-0.256,-0.787,0.89,0.5,-1.73
2022-12-08 18:26:01.6890,-0.151,-0.329,-0.782,0.28,1.56,-1.93
2022-12-08 18:26:01.7010,-0.174,-0.417,-0.787,0.28,1.56,-1.93
2022-12-08 18:26:01.7090,-0.14,-0.419,-0.812,0.46,2.46,-1.88
2022-12-08 18:26:01.7190,-0.121,-0.363,-0.868,0.13,2.53,-1.64
2022-12-08 18:26:01.7290,-0.18,-0.313,-0.902,-0.03,2.02,-1.1
2022-12-08 18:26:01.7390,-0.226,-0.275,-0.926,0.61,1.59,-0.79
2022-12-08 18:26:01.7490,-0.202,-0.23,-0.989,1.13,1.29,-0.56
2022-12-08 18:26:01.7590,-0.16,-0.201,-0.973,0.99,0.9,0.03
2022-12-08 18:26:01.7690,-0.113,-0.205,-0.935,0.71,0.7,-0.15
2022-12-08 18:26:01.7790,-0.101,-0.226,-0.934,0.4,0.81,-0.55
2022-12-08 18:26:01.7890,-0.092,-0.254,-0.941,0.42,1.1,-0.58
2022-12-08 18:26:01.7990,-0.064,-0.248,-0.958,0.43,1.45,-0.52
2022-12-08 18:26:01.8090,-0.009,-0.103,-1.002,0.2,1.44,-0.36
2022-12-08 18:26:01.8190,-0.153,-0.131,-1.109,-0.36,0.05,0.08
2022-12-08 18:26:01.8290,-0.219,-0.255,-1.181,0.99,0.3,1.12
2022-12-08 18:26:01.8390,-0.18,-0.157,-1.109,1.55,1.46,1.85
2022-12-08 18:26:01.8490,-0.176,-0.03,-1.077,1.07,0.44,1.15
2022-12-08 18:26:01.8590,-0.076,-0.068,-1.139,0.94,-0.88,0.85
2022-12-08 18:26:01.8690,-0.113,-0.159,-1.123,-0.13,-0.59,1.48
2022-12-08 18:26:01.8790,-0.214,-0.187,-1.077,0.16,0.2,1.34
2022-12-08 18:26:01.8890,-0.176,-0.202,-1.118,1.06,0.35,0.92
2022-12-08 18:26:01.8990,-0.149,-0.255,-1.118,0.59,0.37,1.35
2022-12-08 18:26:01.9090,-0.005,-0.362,-1.033,0.21,0.73,1.4
2022-12-08 18:26:01.9190,0.143,-0.572,-0.984,-1.31,1.6,0.61
2022-12-08 18:26:01.9290,0.09,-0.744,-0.935,-2.86,3.48,0.18
2022-12-08 18:26:01.9390,-0.011,-0.755,-0.925,-2.42,5.0,-0.25
2022-12-08 18:26:01.9500,-0.176,-0.643,-0.975,-1.47,4.98,-0.31
2022-12-08 18:26:01.9600,-0.343,-0.539,-1.032,0.12,3.8,0.21
2022-12-08 18:26:01.9690,-0.506,-0.377,-1.145,1.72,2.73,0.79
2022-12-08 18:26:01.9800,-0.562,-0.296,-1.269,3.3,1.08,1.92
2022-12-08 18:26:01.9900,-0.473,-0.288,-1.315,3.87,0.21,3.15
2022-12-08 18:26:02.0000,-0.387,-0.314,-1.306,3.01,0.05,3.62
2022-12-08 18:26:02.0100,-0.313,-0.343,-1.288,2.16,0.21,3.57
2022-12-08 18:26:02.0200,-0.277,-0.368,-1.251,1.41,0.37,3.43
2022-12-08 18:26:02.0300,-0.282,-0.378,-1.203,1.03,0.48,3.13
2022-12-08 18:26:02.0400,-0.252,-0.333,-1.169,1.05,0.44,2.7
2022-12-08 18:26:02.0500,-0.247,-0.27,-1.152,0.73,-0.15,2.44
2022-12-08 18:26:02.0600,-0.238,-0.229,-1.12,0.65,-0.94,2.33
2022-12-08 18:26:02.0700,-0.155,-0.126,-1.068,0.55,-1.5,2.09
2022-12-08 18:26:02.0800,-0.144,0.051,-0.946,-0.29,-2.68,1.66
2022-12-08 18:26:02.0900,-0.346,-0.203,-0.934,-0.42,-4.58,0.54
2022-12-08 18:26:02.1000,-0.198,-0.334,-0.921,1.54,-2.26,0.51
2022-12-08 18:26:02.1100,0.032,-0.369,-0.84,0.04,-1.14,0.48
2022-12-08 18:26:02.1200,0.088,-0.392,-0.73,-2.3,-0.95,-0.21
2022-12-08 18:26:02.1300,0.02,-0.419,-0.647,-2.96,-0.88,-1.19
2022-12-08 18:26:02.1400,-0.026,-0.405,-0.622,-2.43,-0.73,-1.89
2022-12-08 18:26:02.1500,-0.048,-0.357,-0.637,-2.14,-0.98,-2.03
2022-12-08 18:26:02.1600,-0.124,-0.317,-0.689,-2.1,-1.54,-1.77
2022-12-08 18:26:02.1700,-0.35,-0.299,-0.652,-1.54,-2.01,-1.15
2022-12-08 18:26:02.1800,-0.334,-0.269,-0.621,0.5,-2.26,-1.41
2022-12-08 18:26:02.1900,-0.284,-0.255,-0.638,0.17,-2.62,-1.6
2022-12-08 18:26:02.2000,-0.305,-0.189,-0.637,-0.51,-2.81,-1.31
2022-12-08 18:26:02.2100,-0.347,-0.141,-0.624,-0.5,-3.48,-1.21
2022-12-08 18:26:02.2200,-0.339,-0.109,-0.625,-0.31,-3.98,-1.22
2022-12-08 18:26:02.2300,-0.339,-0.102,-0.614,-0.61,-4.3,-1.08
2022-12-08 18:26:02.2400,-0.39,-0.116,-0.569,-0.85,-4.37,-1.06
2022-12-08 18:26:02.2500,-0.41,-0.151,-0.519,-0.6,-4.21,-1.35
2022-12-08 18:26:02.2600,-0.439,-0.172,-0.475,-0.67,-3.85,-1.7
2022-12-08 18:26:02.2700,-0.448,-0.195,-0.444,-0.65,-3.6,-1.96
2022-12-08 18:26:02.2800,-0.417,-0.221,-0.434,-0.84,-3.32,-2.1
2022-12-08 18:26:02.2900,-0.399,-0.225,-0.4,-1.4,-3.0,-2.03
2022-12-08 18:26:02.3000,-0.417,-0.186,-0.345,-1.85,-2.87,-2.19
2022-12-08 18:26:02.3100,-0.441,-0.117,-0.314,-1.94,-3.14,-2.56
2022-12-08 18:26:02.3200,-0.489,-0.042,-0.328,-1.98,-3.66,-2.7
2022-12-08 18:26:02.3300,-0.562,-0.01,-0.361,-1.8,-4.21,-2.4
2022-12-08 18:26:02.3400,-0.614,-0.035,-0.389,-1.37,-4.3,-1.91
2022-12-08 18:26:02.3510,-0.703,-0.047,-0.397,-1.14,-3.83,-1.44
2022-12-08 18:26:02.3600,-0.83,-0.039,-0.408,-0.55,-3.46,-1.16
2022-12-08 18:26:02.3700,-0.899,-0.038,-0.424,0.41,-3.27,-0.82
2022-12-08 18:26:02.3810,-0.95,-0.041,-0.421,0.8,-3.01,-0.39
2022-12-08 18:26:02.3910,-0.98,-0.046,-0.391,1.05,-2.71,-0.14
2022-12-08 18:26:02.4010,-0.994,-0.05,-0.325,1.1,-2.37,-0.14
2022-12-08 18:26:02.4100,-1.054,-0.062,-0.244,1.0,-2.02,-0.5
2022-12-08 18:26:02.4210,-1.141,-0.075,-0.163,1.4,-1.58,-1.03
2022-12-08 18:26:02.4310,-1.24,-0.084,-0.114,2.08,-1.1,-1.58
2022-12-08 18:26:02.4410,-1.356,-0.097,-0.122,2.93,-0.64,-1.86
2022-12-08 18:26:02.4510,-1.457,-0.113,-0.172,3.96,-0.14,-1.62
2022-12-08 18:26:02.4610,-1.473,-0.12,-0.241,4.87,0.37,-0.99
2022-12-08 18:26:02.4710,-1.452,-0.105,-0.284,4.99,0.79,-0.21
2022-12-08 18:26:02.4810,-1.41,-0.062,-0.306,4.75,0.99,0.28
2022-12-08 18:26:02.4910,-1.347,-0.008,-0.302,4.33,0.73,0.55
2022-12-08 18:26:02.5030,-1.317,0.019,-0.227,3.73,0.73,0.55
2022-12-08 18:26:02.5110,-1.343,0.038,-0.189,3.74,1.0,-0.45
2022-12-08 18:26:02.5220,-1.383,0.06,-0.199,3.74,1.0,-0.45
2022-12-08 18:26:02.5310,-1.399,0.103,-0.198,4.16,1.16,-0.26
2022-12-08 18:26:02.5410,-1.387,0.202,-0.17,4.38,1.13,-0.16
2022-12-08 18:26:02.5510,-1.357,0.368,-0.139,4.33,0.57,-0.3
2022-12-08 18:26:02.5610,-1.433,0.479,-0.192,4.15,-0.63,-0.48
2022-12-08 18:26:02.5710,-1.479,0.49,-0.204,5.03,-1.27,0.15
2022-12-08 18:26:02.5810,-1.567,0.502,0.007,6.71,-0.62,-1.71
2022-12-08 18:26:02.5930,-1.748,0.448,-0.262,8.7,0.3,0.92
2022-12-08 18:26:02.6030,-1.848,0.388,-0.515,8.7,0.3,0.92
2022-12-08 18:26:02.6110,-1.877,0.297,-0.76,9.88,1.23,3.34
2022-12-08 18:26:02.6210,-1.89,0.133,-0.673,10.36,2.39,5.65
2022-12-08 18:26:02.6310,-1.877,-0.036,-0.34,10.62,5.97,1.29
2022-12-08 18:26:02.6430,-1.819,-0.178,-0.035,10.62,5.97,1.29
2022-12-08 18:26:02.6530,-1.755,-0.219,0.157,9.53,7.82,-3.8
2022-12-08 18:26:02.6630,-1.681,-0.174,0.199,9.53,7.82,-3.8
2022-12-08 18:26:02.6710,-1.542,-0.114,0.186,8.8,7.33,-4.31
2022-12-08 18:26:02.6810,-1.319,-0.015,0.155,7.41,6.66,-4.27
2022-12-08 18:26:02.6930,-1.14,0.096,0.093,3.34,4.34,-3.53
2022-12-08 18:26:02.7030,-1.027,0.111,0.057,2.14,4.02,-3.25
2022-12-08 18:26:02.7130,-0.945,0.069,0.103,2.14,4.02,-3.25
2022-12-08 18:26:02.7210,-0.987,-0.033,0.139,1.23,4.23,-3.74
2022-12-08 18:26:02.7310,-1.055,-0.16,0.215,1.99,5.94,-4.82
2022-12-08 18:26:02.7440,-1.142,-0.235,0.236,1.99,5.94,-4.82
2022-12-08 18:26:02.7510,-1.226,-0.224,0.248,2.63,6.31,-4.93
2022-12-08 18:26:02.7630,-1.379,-0.077,0.218,3.22,5.76,-4.9
2022-12-08 18:26:02.7710,-1.477,0.129,0.044,4.49,3.83,-4.41
2022-12-08 18:26:02.7820,-1.211,0.353,-0.215,2.44,-1.48,0.3
2022-12-08 18:26:02.7940,-0.918,0.545,-0.38,2.44,-1.48,0.3
2022-12-08 18:26:02.8020,-0.843,0.295,-0.579,-0.57,-3.9,2.12
2022-12-08 18:26:02.8120,-0.879,0.403,-0.576,-1.4,-1.97,4.24
2022-12-08 18:26:02.8210,-0.718,0.355,-0.532,-1.1,-3.53,4.37
2022-12-08 18:26:02.8320,-0.524,0.365,-0.433,-4.61,-4.07,3.27
2022-12-08 18:26:02.8440,-0.394,0.467,-0.348,-4.61,-4.07,3.27
2022-12-08 18:26:02.8520,-0.305,0.638,-0.227,-6.73,-7.44,1.52
2022-12-08 18:26:02.8640,-0.342,0.501,-0.015,-6.73,-7.44,1.52
2022-12-08 18:26:02.8720,-0.449,0.317,0.203,-6.34,-6.37,-0.45
2022-12-08 18:26:02.8820,-0.627,0.194,0.359,-3.45,-3.86,-4.05
2022-12-08 18:26:02.8940,-0.696,0.003,0.381,-3.45,-3.86,-4.05
2022-12-08 18:26:02.9020,-0.781,-0.184,0.275,-2.72,-2.24,-4.28
2022-12-08 18:26:02.9140,-0.68,0.045,0.167,-1.83,-0.65,-3.23
2022-12-08 18:26:02.9240,-0.683,-0.031,0.069,-2.76,-3.12,-2.15
2022-12-08 18:26:02.9320,-0.621,0.156,0.008,-2.68,-2.57,-1.16
2022-12-08 18:26:02.9420,-0.604,0.241,-0.015,-3.25,-4.54,-0.54
2022-12-08 18:26:02.9520,-0.619,0.016,0.064,-3.22,-3.31,-1.02
2022-12-08 18:26:02.9640,-0.68,-0.477,0.127,-2.57,1.39,-1.61
2022-12-08 18:26:02.9740,-0.688,-0.369,0.065,-2.43,0.16,-0.97
2022-12-08 18:26:02.9840,-0.681,0.107,0.102,-2.43,0.16,-0.97
2022-12-08 18:26:02.9940,-0.628,-0.105,0.026,-2.47,-4.61,-1.27
2022-12-08 18:26:03.0020,-0.576,-0.314,0.098,-2.95,-2.61,-0.45
2022-12-08 18:26:03.0140,-0.664,-0.322,0.157,-3.42,-0.67,-1.09
2022-12-08 18:26:03.0240,-0.755,-0.215,0.112,-1.58,-1.85,-1.15
2022-12-08 18:26:03.0340,-0.784,-0.131,0.03,-1.28,-2.7,-0.33
2022-12-08 18:26:03.0440,-0.756,-0.214,0.028,-1.55,-1.91,-0.3
2022-12-08 18:26:03.0540,-0.731,-0.309,0.042,-1.55,-1.91,-0.3
2022-12-08 18:26:03.0620,-0.845,-0.449,0.003,-0.65,0.35,-0.06
2022-12-08 18:26:03.0740,-0.935,-0.536,-0.017,-0.65,0.35,-0.06
2022-12-08 18:26:03.0830,-0.945,-0.533,0.026,0.25,1.16,0.1
2022-12-08 18:26:03.0920,-0.973,-0.508,0.104,0.37,1.1,-0.35
2022-12-08 18:26:03.1020,-1.019,-0.514,0.181,0.65,0.82,-1.14
2022-12-08 18:26:03.1120,-1.008,-0.492,0.204,1.12,0.85,-1.9
2022-12-08 18:26:03.1220,-1.044,-0.523,0.169,1.36,0.95,-1.79
2022-12-08 18:26:03.1340,-1.087,-0.564,0.118,1.36,0.95,-1.79
2022-12-08 18:26:03.1420,-1.159,-0.693,-0.031,1.77,1.38,-1.32
2022-12-08 18:26:03.1520,-1.15,-0.748,-0.133,2.46,2.69,0.1
2022-12-08 18:26:03.1620,-1.194,-0.876,-0.258,2.33,3.3,1.08
2022-12-08 18:26:03.1720,-1.384,-1.103,-0.312,2.72,4.66,2.35
2022-12-08 18:26:03.1820,-1.501,-1.08,-0.225,4.55,6.95,2.97
2022-12-08 18:26:03.1930,-1.483,-0.458,-0.306,5.73,6.66,2.24
2022-12-08 18:26:03.2020,-1.454,-0.034,-0.117,5.62,0.41,3.14
2022-12-08 18:26:03.2130,-1.212,-0.176,-0.131,5.42,-3.92,1.38
2022-12-08 18:26:03.2220,-0.868,-0.342,-0.219,-0.16,-1.22,2.44
2022-12-08 18:26:03.2350,-0.741,-0.308,-0.216,-0.16,-1.22,2.44
2022-12-08 18:26:03.2450,-0.727,-0.28,-0.178,-1.36,-1.65,2.37
2022-12-08 18:26:03.2530,-0.805,-0.236,-0.164,-1.48,-1.96,1.94
2022-12-08 18:26:03.2650,-0.932,-0.251,-0.143,-0.71,-2.41,1.73
2022-12-08 18:26:03.2730,-0.974,-0.317,-0.105,0.53,-2.26,1.44
2022-12-08 18:26:03.2830,-1.012,-0.347,-0.117,0.95,-1.62,0.96
2022-12-08 18:26:03.2930,-1.025,-0.357,-0.193,1.33,-1.32,0.98
2022-12-08 18:26:03.3030,-0.932,-0.387,-0.239,1.46,-1.24,1.66
2022-12-08 18:26:03.3130,-0.891,-0.321,-0.253,0.58,-0.98,2.03
2022-12-08 18:26:03.3230,-0.801,-0.283,-0.284,0.21,-1.68,2.09
2022-12-08 18:26:03.3330,-0.828,-0.215,-0.267,-0.64,-2.12,2.3
2022-12-08 18:26:03.3430,-0.938,-0.092,-0.23,-0.33,-2.85,2.05
2022-12-08 18:26:03.3530,-0.886,-0.106,-0.279,0.79,-4.11,1.58
2022-12-08 18:26:03.3630,-0.916,-0.235,-0.298,0.31,-4.02,1.94
2022-12-08 18:26:03.3730,-0.892,-0.295,-0.253,0.64,-2.8,2.0
2022-12-08 18:26:03.3830,-0.857,-0.245,-0.141,0.45,-2.24,1.47
2022-12-08 18:26:03.3930,-0.853,-0.209,-0.0,0.14,-2.77,0.28
2022-12-08 18:26:03.4030,-0.881,-0.224,0.059,0.14,-3.16,-1.17
2022-12-08 18:26:03.4130,-0.899,-0.262,0.041,0.44,-3.06,-1.81
2022-12-08 18:26:03.4230,-0.816,-0.269,0.018,0.66,-2.74,-1.69
2022-12-08 18:26:03.4330,-0.73,-0.231,-0.003,-0.1,-2.74,-1.51
2022-12-08 18:26:03.4430,-0.652,-0.197,-0.027,-0.87,-3.2,-1.36
2022-12-08 18:26:03.4530,-0.538,-0.211,-0.069,-1.55,-3.65,-1.2
2022-12-08 18:26:03.4630,-0.478,-0.238,-0.104,-2.56,-3.64,-0.85
2022-12-08 18:26:03.4730,-0.445,-0.26,-0.137,-3.04,-3.51,-0.59
2022-12-08 18:26:03.4830,-0.406,-0.236,-0.167,-3.24,-3.43,-0.34
2022-12-08 18:26:03.4930,-0.43,-0.243,-0.175,-3.49,-3.81,-0.11
2022-12-08 18:26:03.5030,-0.46,-0.277,-0.176,-3.11,-3.89,-0.09
2022-12-08 18:26:03.5130,-0.504,-0.323,-0.173,-2.69,-3.7,-0.12
2022-12-08 18:26:03.5230,-0.516,-0.379,-0.174,-2.12,-3.38,-0.19
2022-12-08 18:26:03.5330,-0.557,-0.444,-0.141,-1.88,-2.96,-0.2
2022-12-08 18:26:03.5430,-0.587,-0.513,-0.13,-1.37,-2.42,-0.55
2022-12-08 18:26:03.5530,-0.593,-0.618,-0.097,-1.0,-1.82,-0.67
2022-12-08 18:26:03.5630,-0.646,-0.714,-0.028,-0.9,-0.82,-1.01
2022-12-08 18:26:03.5730,-0.748,-0.811,0.058,-0.36,0.12,-1.75
2022-12-08 18:26:03.5830,-0.878,-0.936,0.106,0.65,1.08,-2.66
2022-12-08 18:26:03.5930,-0.931,-1.046,0.112,1.93,2.32,-3.18
2022-12-08 18:26:03.6030,-0.923,-1.109,0.085,2.44,3.41,-3.26
2022-12-08 18:26:03.6130,-0.91,-1.114,-0.011,2.36,4.05,-3.01
2022-12-08 18:26:03.6230,-0.861,-1.066,-0.141,2.21,4.1,-2.08
2022-12-08 18:26:03.6330,-0.756,-1.027,-0.208,1.74,3.64,-0.82
2022-12-08 18:26:03.6430,-0.681,-1.001,-0.168,0.71,3.26,-0.17
2022-12-08 18:26:03.6540,-0.649,-0.973,-0.113,-0.35,2.73,-1.1
2022-12-08 18:26:03.6660,-0.613,-0.942,-0.107,-0.35,2.73,-1.1
2022-12-08 18:26:03.6740,-0.641,-0.891,-0.185,-0.71,2.44,-1.16
2022-12-08 18:26:03.6840,-0.671,-0.851,-0.296,-0.44,1.94,-0.39
2022-12-08 18:26:03.6940,-0.654,-0.859,-0.413,-0.15,1.56,0.69
2022-12-08 18:26:03.7040,-0.694,-0.879,-0.529,-0.32,1.64,1.83
2022-12-08 18:26:03.7140,-0.769,-0.909,-0.589,0.07,1.84,2.97
2022-12-08 18:26:03.7240,-0.779,-0.902,-0.579,0.8,2.12,3.58
2022-12-08 18:26:03.7340,-0.802,-0.882,-0.539,0.91,2.04,3.51
2022-12-08 18:26:03.7440,-0.844,-0.869,-0.507,1.13,1.83,3.14
2022-12-08 18:26:03.7540,-0.847,-0.786,-0.438,1.55,1.69,2.85
2022-12-08 18:26:03.7640,-0.807,-0.655,-0.359,1.59,0.86,2.21
2022-12-08 18:26:03.7740,-0.776,-0.553,-0.346,1.21,-0.44,1.46
2022-12-08 18:26:03.7840,-0.755,-0.527,-0.392,0.91,-1.45,1.34
2022-12-08 18:26:03.7940,-0.75,-0.527,-0.429,0.72,-1.71,1.78
2022-12-08 18:26:03.8040,-0.748,-0.54,-0.482,0.7,-1.74,2.1
2022-12-08 18:26:03.8140,-0.728,-0.57,-0.514,0.72,-1.62,2.57
2022-12-08 18:26:03.8240,-0.836,-0.603,-0.434,0.57,-1.35,2.83
2022-12-08 18:26:03.8340,-0.97,-0.806,-0.348,1.65,-1.05,2.0
2022-12-08 18:26:03.8440,-1.05,-1.006,-0.29,2.96,0.96,1.14
2022-12-08 18:26:03.8540,-1.184,-1.127,-0.195,3.72,2.95,0.57
2022-12-08 18:26:03.8640,-1.282,-1.095,-0.101,4.98,4.17,-0.31
2022-12-08 18:26:03.8740,-1.205,-0.978,-0.095,5.89,3.88,-1.17
2022-12-08 18:26:03.8840,-1.015,-0.93,-0.144,5.1,2.75,-1.16
2022-12-08 18:26:03.8940,-0.826,-0.897,-0.173,3.2,2.29,-0.59
2022-12-08 18:26:03.9040,-0.754,-0.833,-0.19,1.31,1.98,-0.22
2022-12-08 18:26:03.9140,-0.685,-0.737,-0.186,0.56,1.36,0.05
2022-12-08 18:26:03.9240,-0.648,-0.658,-0.184,-0.14,0.42,0.11
2022-12-08 18:26:03.9340,-0.626,-0.594,-0.181,-0.52,-0.36,0.18
2022-12-08 18:26:03.9440,-0.603,-0.548,-0.197,-0.76,-0.98,0.23
2022-12-08 18:26:03.9540,-0.566,-0.493,-0.22,-1.0,-1.44,0.45
2022-12-08 18:26:03.9640,-0.53,-0.428,-0.234,-1.38,-1.97,0.71
2022-12-08 18:26:03.9740,-0.491,-0.37,-0.234,-1.74,-2.6,0.87
2022-12-08 18:26:03.9840,-0.434,-0.314,-0.211,-2.12,-3.17,0.87
2022-12-08 18:26:03.9940,-0.355,-0.271,-0.193,-2.68,-3.72,0.64
2022-12-08 18:26:04.0040,-0.291,-0.255,-0.174,-3.46,-4.14,0.46
2022-12-08 18:26:04.0140,-0.316,-0.266,-0.106,-4.08,-4.29,0.26
2022-12-08 18:26:04.0240,-0.367,-0.293,-0.071,-3.84,-4.19,-0.42
2022-12-08 18:26:04.0340,-0.386,-0.308,-0.054,-3.33,-3.93,-0.77
2022-12-08 18:26:04.0440,-0.393,-0.311,-0.028,-3.13,-3.79,-0.95
2022-12-08 18:26:04.0540,-0.397,-0.314,0.0,-3.06,-3.77,-1.22
2022-12-08 18:26:04.0640,-0.414,-0.342,0.025,-3.0,-3.75,-1.49
2022-12-08 18:26:04.0750,-0.446,-0.417,0.04,-2.81,-3.5,-1.72
2022-12-08 18:26:04.0840,-0.519,-0.498,0.052,-2.48,-2.79,-1.85
2022-12-08 18:26:04.0950,-0.547,-0.574,0.071,-1.74,-2.03,-1.93
2022-12-08 18:26:04.1050,-0.542,-0.658,0.085,-1.44,-1.31,-2.06
2022-12-08 18:26:04.1150,-0.538,-0.744,0.069,-1.46,-0.52,-2.15
2022-12-08 18:26:04.1250,-0.575,-0.823,0.023,-1.49,0.3,-1.97
2022-12-08 18:26:04.1350,-0.635,-0.884,-0.019,-1.11,1.07,-1.51
2022-12-08 18:26:04.1450,-0.702,-0.896,-0.041,-0.52,1.67,-1.14
2022-12-08 18:26:04.1550,-0.793,-0.897,-0.072,0.13,1.8,-0.98
2022-12-08 18:26:04.1650,-0.909,-0.92,-0.077,1.01,1.84,-0.71
2022-12-08 18:26:04.1750,-0.96,-0.921,-0.001,2.11,2.08,-0.64
2022-12-08 18:26:04.1850,-0.881,-0.905,0.154,2.6,2.09,-1.26
2022-12-08 18:26:04.1950,-0.89,-0.947,0.254,1.81,1.92,-2.58
2022-12-08 18:26:04.2050,-1.031,-1.114,0.197,1.88,2.3,-3.28
2022-12-08 18:26:04.2150,-1.078,-1.192,0.248,3.26,3.92,-2.42
2022-12-08 18:26:04.2250,-1.028,-1.011,0.218,3.72,4.67,-2.7
2022-12-08 18:26:04.2350,-0.984,-0.982,-0.019,3.23,2.89,-2.31
2022-12-08 18:26:04.2450,-0.975,-1.029,-0.184,2.79,2.62,0.04
2022-12-08 18:26:04.2550,-0.881,-0.851,-0.248,2.68,3.1,1.64
2022-12-08 18:26:04.2650,-0.825,-0.749,-0.276,1.73,1.38,2.23
2022-12-08 18:26:04.2750,-0.781,-0.714,-0.342,1.15,0.4,2.46
2022-12-08 18:26:04.2850,-0.72,-0.642,-0.441,0.69,0.1,3.07
2022-12-08 18:26:04.2950,-0.644,-0.49,-0.519,0.05,-0.57,4.01
2022-12-08 18:26:04.3050,-0.687,-0.451,-0.536,-0.72,-2.03,4.79
2022-12-08 18:26:04.3150,-0.776,-0.506,-0.492,-0.32,-2.39,4.99
2022-12-08 18:26:04.3270,-0.815,-0.578,-0.414,0.54,-1.84,4.59
2022-12-08 18:26:04.3350,-0.849,-0.662,-0.331,0.93,-1.13,3.83
2022-12-08 18:26:04.3450,-0.866,-0.78,-0.31,1.27,-0.32,2.97
2022-12-08 18:26:04.3550,-0.834,-0.893,-0.323,1.44,0.83,2.69
2022-12-08 18:26:04.3650,-0.891,-0.965,-0.232,1.15,1.93,2.72
2022-12-08 18:26:04.3750,-0.887,-0.978,-0.135,1.73,2.62,1.73
2022-12-08 18:26:04.3850,-0.858,-0.933,-0.034,1.44,2.28,-0.42
2022-12-08 18:26:04.3980,-0.827,-0.898,0.011,1.44,2.28,-0.42
2022-12-08 18:26:04.4070,-0.795,-0.908,-0.031,1.17,1.93,-0.96
2022-12-08 18:26:04.4150,-0.794,-0.892,-0.067,0.87,2.02,-0.65
2022-12-08 18:26:04.4250,-0.789,-0.784,-0.085,0.88,1.86,-0.39
2022-12-08 18:26:04.4350,-0.757,-0.716,-0.1,0.86,0.79,-0.28
2022-12-08 18:26:04.4470,-0.708,-0.646,-0.077,0.55,0.11,-0.2
2022-12-08 18:26:04.4550,-0.653,-0.556,-0.033,0.08,-0.58,-0.48
2022-12-08 18:26:04.4660,-0.607,-0.481,-0.013,-0.45,-1.46,-0.97
2022-12-08 18:26:04.4750,-0.565,-0.439,-0.011,-0.89,-2.19,-1.24
2022-12-08 18:26:04.4860,-0.54,-0.418,-0.021,-1.29,-2.59,-1.33
2022-12-08 18:26:04.4960,-0.528,-0.419,-0.034,-1.53,-2.79,-1.3
2022-12-08 18:26:04.5060,-0.518,-0.426,-0.055,-1.64,-2.77,-1.24
2022-12-08 18:26:04.5160,-0.502,-0.43,-0.065,-1.73,-2.7,-1.1
2022-12-08 18:26:04.5260,-0.489,-0.437,-0.058,-1.88,-2.65,-1.05
2022-12-08 18:26:04.5360,-0.481,-0.439,-0.049,-2.01,-2.56,-1.17
2022-12-08 18:26:04.5460,-0.467,-0.436,-0.016,-2.1,-2.53,-1.31
2022-12-08 18:26:04.5560,-0.463,-0.431,0.022,-2.25,-2.54,-1.68
2022-12-08 18:26:04.5660,-0.451,-0.433,0.049,-2.31,-2.55,-2.1
2022-12-08 18:26:04.5760,-0.44,-0.447,0.058,-2.44,-2.5,-2.41
2022-12-08 18:26:04.5860,-0.436,-0.471,0.05,-2.56,-2.33,-2.55
2022-12-08 18:26:04.5960,-0.45,-0.511,0.019,-2.63,-2.05,-2.52
2022-12-08 18:26:04.6060,-0.49,-0.54,-0.035,-2.51,-1.63,-2.26
2022-12-08 18:26:04.6160,-0.545,-0.565,-0.097,-2.14,-1.31,-1.77
2022-12-08 18:26:04.6260,-0.6,-0.616,-0.145,-1.62,-1.03,-1.2
2022-12-08 18:26:04.6360,-0.639,-0.668,-0.172,-1.1,-0.51,-0.75
2022-12-08 18:26:04.6460,-0.679,-0.709,-0.205,-0.73,0.02,-0.49
2022-12-08 18:26:04.6560,-0.707,-0.753,-0.221,-0.35,0.44,-0.17
2022-12-08 18:26:04.6660,-0.746,-0.8,-0.228,-0.08,0.88,0.0
2022-12-08 18:26:04.6760,-0.774,-0.859,-0.168,0.28,1.35,0.08
2022-12-08 18:26:04.6860,-0.806,-0.91,-0.066,0.55,1.94,-0.51
2022-12-08 18:26:04.6960,-0.861,-0.953,-0.047,0.85,2.44,-1.5
2022-12-08 18:26:04.7060,-0.948,-0.969,-0.236,1.37,2.87,-1.66
2022-12-08 18:26:04.7160,-0.979,-0.996,-0.364,2.22,3.02,0.23
2022-12-08 18:26:04.7260,-0.935,-1.057,-0.381,2.53,3.28,1.53
2022-12-08 18:26:04.7360,-0.902,-1.038,-0.389,2.09,3.87,1.75
2022-12-08 18:26:04.7460,-0.886,-0.985,-0.426,1.76,3.66,1.89
2022-12-08 18:26:04.7560,-0.867,-0.917,-0.464,1.59,3.14,2.35
2022-12-08 18:26:04.7660,-0.845,-0.771,-0.443,1.38,2.46,2.83
2022-12-08 18:26:04.7760,-0.838,-0.666,-0.413,1.15,1.03,2.75
2022-12-08 18:26:04.7860,-0.844,-0.611,-0.407,1.05,0.0,2.58
2022-12-08 18:26:04.7960,-0.844,-0.615,-0.432,1.09,-0.56,2.62
2022-12-08 18:26:04.8060,-0.847,-0.615,-0.492,1.09,-0.53,2.95
2022-12-08 18:26:04.8160,-0.868,-0.608,-0.577,1.13,-0.55,3.58
2022-12-08 18:26:04.8260,-0.911,-0.576,-0.644,1.36,-0.64,4.43
2022-12-08 18:26:04.8360,-0.972,-0.535,-0.636,1.8,-0.98,5.09
2022-12-08 18:26:04.8460,-1.044,-0.546,-0.541,2.42,-1.41,5.02
2022-12-08 18:26:04.8560,-1.114,-0.608,-0.384,3.14,-1.31,4.11
2022-12-08 18:26:04.8660,-1.168,-0.687,-0.184,3.83,-0.72,2.59
2022-12-08 18:26:04.8760,-1.167,-0.767,-0.003,4.36,0.06,0.64
2022-12-08 18:26:04.8870,-1.109,-0.807,0.095,4.34,0.85,-1.17
2022-12-08 18:26:04.8960,-1.012,-0.772,0.106,3.76,1.27,-2.17
2022-12-08 18:26:04.9060,-0.89,-0.723,0.042,2.8,0.95,-2.31
2022-12-08 18:26:04.9160,-0.769,-0.696,-0.033,1.58,0.48,-1.68
2022-12-08 18:26:04.9260,-0.686,-0.7,-0.07,0.38,0.22,-0.91
2022-12-08 18:26:04.9360,-0.618,-0.706,-0.089,-0.44,0.27,-0.46
2022-12-08 18:26:04.9470,-0.566,-0.683,-0.117,-1.13,0.33,-0.18
2022-12-08 18:26:04.9560,-0.53,-0.662,-0.144,-1.66,0.1,0.2
2022-12-08 18:26:04.9660,-0.491,-0.627,-0.158,-2.02,-0.11,0.56
2022-12-08 18:26:04.9770,-0.465,-0.589,-0.152,-2.41,-0.44,0.76
2022-12-08 18:26:04.9870,-0.438,-0.548,-0.13,-2.68,-0.81,0.75
2022-12-08 18:26:04.9970,-0.405,-0.496,-0.099,-2.95,-1.21,0.54
2022-12-08 18:26:05.0070,-0.391,-0.435,-0.078,-3.29,-1.71,0.24
2022-12-08 18:26:05.0170,-0.395,-0.367,-0.08,-3.43,-2.29,0.0
2022-12-08 18:26:05.0270,-0.407,-0.337,-0.067,-3.4,-2.95,-0.01
2022-12-08 18:26:05.0370,-0.428,-0.35,-0.04,-3.29,-3.22,-0.17
2022-12-08 18:26:05.0470,-0.433,-0.363,-0.028,-3.09,-3.09,-0.49
2022-12-08 18:26:05.0570,-0.445,-0.363,-0.006,-3.04,-2.96,-0.67
2022-12-08 18:26:05.0670,-0.452,-0.355,0.025,-2.92,-2.95,-0.94
2022-12-08 18:26:05.0770,-0.458,-0.361,0.071,-2.84,-3.02,-1.31
2022-12-08 18:26:05.0870,-0.493,-0.397,0.113,-2.78,-2.96,-1.82
2022-12-08 18:26:05.0970,-0.529,-0.42,0.134,-2.42,-2.61,-2.29
2022-12-08 18:26:05.1070,-0.559,-0.442,0.143,-2.06,-2.39,-2.53
2022-12-08 18:26:05.1170,-0.605,-0.479,0.11,-1.75,-2.18,-2.66
2022-12-08 18:26:05.1270,-0.667,-0.532,0.02,-1.28,-1.83,-2.37
2022-12-08 18:26:05.1370,-0.74,-0.592,-0.073,-0.65,-1.33,-1.52
2022-12-08 18:26:05.1470,-0.822,-0.651,-0.112,0.09,-0.76,-0.66
2022-12-08 18:26:05.1570,-0.911,-0.711,-0.134,0.92,-0.19,-0.34
2022-12-08 18:26:05.1670,-0.97,-0.773,-0.145,1.81,0.39,-0.21
2022-12-08 18:26:05.1770,-1.027,-0.852,-0.11,2.4,1.01,-0.16
2022-12-08 18:26:05.1870,-1.136,-0.877,0.02,2.95,1.8,-0.51
2022-12-08 18:26:05.1970,-1.211,-0.934,0.209,4.0,2.05,-1.71
2022-12-08 18:26:05.2070,-1.24,-1.129,0.242,4.7,2.6,-3.41
2022-12-08 18:26:05.2170,-1.227,-1.212,0.078,4.94,4.53,-3.52
2022-12-08 18:26:05.2270,-1.137,-1.033,-0.058,3.85,3.61,-0.22
2022-12-08 18:26:05.2390,-1.071,-0.798,-0.166,3.85,3.61,-0.22
2022-12-08 18:26:05.2470,-1.053,-0.665,-0.253,3.19,1.33,0.93
2022-12-08 18:26:05.2570,-1.032,-0.772,-0.361,2.99,0.03,1.79
2022-12-08 18:26:05.2670,-0.961,-0.812,-0.364,2.78,1.1,2.87
2022-12-08 18:26:05.2770,-0.87,-0.636,-0.305,2.08,1.49,2.93
2022-12-08 18:26:05.2870,-0.808,-0.485,-0.328,1.18,-0.23,2.38
2022-12-08 18:26:05.2970,-0.76,-0.475,-0.366,0.57,-1.72,2.65
2022-12-08 18:26:05.3070,-0.734,-0.493,-0.338,0.11,-1.83,3.07
2022-12-08 18:26:05.3170,-0.754,-0.569,-0.282,-0.16,-1.65,2.88
2022-12-08 18:26:05.3270,-0.759,-0.675,-0.238,0.04,-0.91,2.42
2022-12-08 18:26:05.3380,-0.794,-0.766,-0.206,0.09,0.12,2.05
2022-12-08 18:26:05.3480,-0.835,-0.862,-0.209,0.44,1.0,1.76
2022-12-08 18:26:05.3570,-0.858,-0.919,-0.22,0.85,1.95,1.75
2022-12-08 18:26:05.3680,-0.859,-0.93,-0.228,1.09,2.49,1.77
2022-12-08 18:26:05.3780,-0.842,-0.926,-0.25,1.11,2.59,1.72
2022-12-08 18:26:05.3880,-0.821,-0.864,-0.277,0.97,2.53,1.81
2022-12-08 18:26:05.3970,-0.786,-0.779,-0.283,0.79,1.91,1.95
2022-12-08 18:26:05.4070,-0.765,-0.695,-0.248,0.47,1.07,1.91
2022-12-08 18:26:05.4180,-0.754,-0.623,-0.184,0.28,0.24,1.49
2022-12-08 18:26:05.4280,-0.749,-0.555,-0.112,0.18,-0.47,0.79
2022-12-08 18:26:05.4380,-0.718,-0.483,-0.052,0.13,-1.13,0.02
2022-12-08 18:26:05.4480,-0.691,-0.405,-0.022,-0.17,-1.82,-0.64
2022-12-08 18:26:05.4580,-0.652,-0.328,-0.018,-0.43,-2.57,-1.03
2022-12-08 18:26:05.4680,-0.611,-0.282,-0.02,-0.82,-3.3,-1.16
2022-12-08 18:26:05.4780,-0.575,-0.267,-0.029,-1.22,-3.74,-1.25
2022-12-08 18:26:05.4880,-0.544,-0.285,-0.047,-1.56,-3.86,-1.25
2022-12-08 18:26:05.4980,-0.523,-0.325,-0.088,-1.86,-3.68,-1.18
2022-12-08 18:26:05.5080,-0.52,-0.375,-0.128,-2.05,-3.27,-0.86
2022-12-08 18:26:05.5180,-0.515,-0.42,-0.163,-2.07,-2.77,-0.56
2022-12-08 18:26:05.5280,-0.505,-0.463,-0.203,-2.1,-2.33,-0.3
2022-12-08 18:26:05.5380,-0.501,-0.502,-0.21,-2.19,-1.89,0.02
2022-12-08 18:26:05.5480,-0.486,-0.54,-0.184,-2.22,-1.5,0.01
2022-12-08 18:26:05.5580,-0.481,-0.575,-0.137,-2.36,-1.1,-0.33
2022-12-08 18:26:05.5680,-0.494,-0.602,-0.084,-2.42,-0.74,-0.87
2022-12-08 18:26:05.5780,-0.521,-0.635,-0.045,-2.3,-0.44,-1.46
2022-12-08 18:26:05.5880,-0.547,-0.661,-0.024,-2.04,-0.08,-1.9
2022-12-08 18:26:05.5980,-0.571,-0.668,-0.008,-1.8,0.22,-2.17
2022-12-08 18:26:05.6080,-0.585,-0.66,0.002,-1.58,0.33,-2.37
2022-12-08 18:26:05.6180,-0.608,-0.655,-0.004,-1.46,0.29,-2.52
2022-12-08 18:26:05.6280,-0.635,-0.651,-0.051,-1.26,0.28,-2.49
2022-12-08 18:26:05.6380,-0.676,-0.651,-0.142,-1.02,0.28,-2.06
2022-12-08 18:26:05.6480,-0.712,-0.661,-0.219,-0.64,0.31,-1.19
2022-12-08 18:26:05.6580,-0.746,-0.683,-0.253,-0.3,0.44,-0.45
2022-12-08 18:26:05.6680,-0.776,-0.707,-0.251,0.02,0.68,-0.13
2022-12-08 18:26:05.6780,-0.843,-0.737,-0.243,0.29,0.94,-0.15
2022-12-08 18:26:05.6880,-0.877,-0.76,-0.178,0.93,1.25,-0.24
2022-12-08 18:26:05.6980,-0.905,-0.791,-0.111,1.25,1.51,-0.87
2022-12-08 18:26:05.7080,-0.938,-0.815,-0.122,1.5,1.82,-1.52
2022-12-08 18:26:05.7180,-0.976,-0.828,-0.219,1.82,2.08,-1.4
2022-12-08 18:26:05.7280,-1.028,-0.851,-0.286,2.16,2.22,-0.43
2022-12-08 18:26:05.7380,-1.037,-0.877,-0.277,2.66,2.45,0.25
2022-12-08 18:26:05.7480,-1.04,-0.898,-0.29,2.73,2.71,0.21
2022-12-08 18:26:05.7580,-1.049,-0.931,-0.369,2.74,2.92,0.38
2022-12-08 18:26:05.7690,-1.026,-0.933,-0.453,2.81,3.25,1.22
2022-12-08 18:26:05.7790,-0.989,-0.914,-0.512,2.55,3.28,2.12
2022-12-08 18:26:05.7880,-0.902,-0.856,-0.539,2.16,3.1,2.79
2022-12-08 18:26:05.7990,-0.849,-0.773,-0.546,1.27,2.54,3.13
2022-12-08 18:26:05.8090,-0.812,-0.677,-0.531,0.73,1.73,3.29
2022-12-08 18:26:05.8190,-0.772,-0.603,-0.536,0.33,0.8,3.22
2022-12-08 18:26:05.8290,-0.724,-0.536,-0.562,-0.09,0.08,3.34
2022-12-08 18:26:05.8390,-0.723,-0.473,-0.582,-0.57,-0.58,3.65
2022-12-08 18:26:05.8490,-0.763,-0.42,-0.593,-0.58,-1.2,3.88
2022-12-08 18:26:05.8590,-0.819,-0.381,-0.579,-0.19,-1.72,4.01
2022-12-08 18:26:05.8690,-0.877,-0.361,-0.507,0.36,-2.12,3.9
2022-12-08 18:26:05.8790,-0.96,-0.372,-0.386,0.93,-2.33,3.22
2022-12-08 18:26:05.8890,-1.047,-0.417,-0.255,1.75,-2.22,2.08
2022-12-08 18:26:05.8990,-1.097,-0.477,-0.118,2.59,-1.78,0.81
2022-12-08 18:26:05.9090,-1.07,-0.53,-0.011,3.07,-1.19,-0.52
2022-12-08 18:26:05.9190,-0.997,-0.56,0.029,2.79,-0.65,-1.57
2022-12-08 18:26:05.9290,-0.907,-0.548,-0.013,2.06,-0.33,-1.97
2022-12-08 18:26:05.9390,-0.821,-0.568,-0.108,1.15,-0.43,-1.57
2022-12-08 18:26:05.9490,-0.741,-0.6,-0.17,0.3,-0.2,-0.61
2022-12-08 18:26:05.9590,-0.682,-0.633,-0.178,-0.52,0.13,0.06
2022-12-08 18:26:05.9690,-0.659,-0.662,-0.151,-1.13,0.47,0.25
2022-12-08 18:26:05.9790,-0.646,-0.677,-0.117,-1.39,0.76,0.11
2022-12-08 18:26:05.9890,-0.623,-0.673,-0.111,-1.55,0.93,-0.08
2022-12-08 18:26:05.9990,-0.614,-0.636,-0.119,-1.81,0.91,-0.02
2022-12-08 18:26:06.0090,-0.609,-0.593,-0.134,-1.93,0.57,0.16
2022-12-08 18:26:06.0190,-0.574,-0.533,-0.147,-2.01,0.18,0.39
2022-12-08 18:26:06.0290,-0.559,-0.479,-0.119,-2.38,-0.39,0.59
2022-12-08 18:26:06.0390,-0.538,-0.457,-0.097,-2.55,-0.88,0.36
2022-12-08 18:26:06.0490,-0.512,-0.412,-0.058,-2.78,-1.08,0.19
2022-12-08 18:26:06.0590,-0.492,-0.34,-0.012,-3.05,-1.51,-0.19
2022-12-08 18:26:06.0690,-0.465,-0.269,0.012,-3.25,-2.19,-0.65
2022-12-08 18:26:06.0790,-0.467,-0.217,0.004,-3.51,-2.89,-0.9
2022-12-08 18:26:06.0890,-0.518,-0.2,-0.013,-3.5,-3.39,-0.87
2022-12-08 18:26:06.0990,-0.58,-0.24,-0.022,-2.99,-3.56,-0.74
2022-12-08 18:26:06.1090,-0.614,-0.282,-0.013,-2.36,-3.18,-0.71
2022-12-08 18:26:06.1190,-0.676,-0.304,0.01,-2.01,-2.78,-0.87
2022-12-08 18:26:06.1290,-0.724,-0.319,0.041,-0.89,-2.46,-1.5
2022-12-08 18:26:06.1420,-0.749,-0.321,0.088,-0.89,-2.46,-1.5
2022-12-08 18:26:06.1490,-0.785,-0.324,0.148,-0.63,-2.47,-1.99
2022-12-08 18:26:06.1590,-0.822,-0.345,0.194,-0.26,-2.46,-2.6
2022-12-08 18:26:06.1690,-0.821,-0.409,0.229,0.13,-2.27,-3.06
2022-12-08 18:26:06.1790,-0.814,-0.496,0.229,0.14,-1.67,-3.4
2022-12-08 18:26:06.1900,-0.818,-0.585,0.131,0.09,-0.85,-3.4
2022-12-08 18:26:06.1990,-0.856,-0.681,-0.045,0.14,-0.01,-2.46
2022-12-08 18:26:06.2100,-0.914,-0.8,-0.224,0.55,0.91,-0.78
2022-12-08 18:26:06.2200,-0.947,-0.912,-0.349,1.13,2.07,0.9
2022-12-08 18:26:06.2290,-0.979,-0.918,-0.278,1.47,3.16,2.06
2022-12-08 18:26:06.2400,-1.019,-0.824,0.0,1.79,3.22,1.37
2022-12-08 18:26:06.2500,-1.041,-0.766,0.26,2.19,2.27,-1.27
2022-12-08 18:26:06.2600,-1.153,-0.872,0.319,2.4,1.68,-3.67
2022-12-08 18:26:06.2700,-1.243,-1.029,0.18,3.48,2.69,-4.06
2022-12-08 18:26:06.2800,-1.19,-1.003,0.058,4.35,4.24,-2.49
2022-12-08 18:26:06.2900,-1.092,-0.818,-0.05,3.8,4.01,-1.08
2022-12-08 18:26:06.3000,-1.03,-0.542,-0.076,2.81,2.22,0.16
2022-12-08 18:26:06.3100,-0.955,-0.418,-0.104,2.17,-0.46,0.5
2022-12-08 18:26:06.3200,-0.882,-0.5,-0.263,1.41,-1.65,0.79
2022-12-08 18:26:06.3300,-0.829,-0.535,-0.378,0.68,-0.82,2.31
2022-12-08 18:26:06.3400,-0.818,-0.503,-0.458,0.14,-0.46,3.38
2022-12-08 18:26:06.3500,-0.882,-0.469,-0.543,0.02,-0.73,4.13
2022-12-08 18:26:06.3600,-0.904,-0.397,-0.558,0.62,-1.04,4.96
2022-12-08 18:26:06.3700,-0.87,-0.405,-0.439,0.83,-1.72,5.17
2022-12-08 18:26:06.3800,-0.883,-0.491,-0.321,0.48,-1.64,4.09
2022-12-08 18:26:06.3900,-0.954,-0.613,-0.271,0.61,-0.81,3.0
2022-12-08 18:26:06.4000,-1.045,-0.762,-0.248,1.32,0.38,2.51
2022-12-08 18:26:06.4100,-1.134,-0.836,-0.213,2.22,1.83,2.25
2022-12-08 18:26:06.4200,-1.165,-0.797,-0.177,3.09,2.56,1.84
2022-12-08 18:26:06.4300,-1.173,-0.738,-0.122,3.41,2.17,1.41
2022-12-08 18:26:06.4400,-1.131,-0.712,-0.06,3.5,1.58,0.81
2022-12-08 18:26:06.4500,-1.065,-0.652,0.005,3.1,1.3,0.14
2022-12-08 18:26:06.4600,-0.96,-0.569,0.053,2.48,0.68,-0.56
2022-12-08 18:26:06.4700,-0.849,-0.5,0.076,1.49,-0.17,-1.08
2022-12-08 18:26:06.4800,-0.787,-0.471,0.088,0.43,-0.89,-1.38
2022-12-08 18:26:06.4900,-0.733,-0.491,0.046,-0.14,-1.22,-1.59
2022-12-08 18:26:06.5000,-0.694,-0.487,0.003,-0.63,-1.06,-1.28
2022-12-08 18:26:06.5100,-0.659,-0.444,-0.0,-0.98,-1.12,-0.97
2022-12-08 18:26:06.5200,-0.62,-0.391,-0.005,-1.3,-1.56,-1.06
2022-12-08 18:26:06.5300,-0.57,-0.351,-0.024,-1.65,-2.09,-1.15
2022-12-08 18:26:06.5400,-0.531,-0.331,-0.046,-2.11,-2.49,-1.13
2022-12-08 18:26:06.5500,-0.503,-0.328,-0.07,-2.45,-2.69,-1.09
2022-12-08 18:26:06.5600,-0.472,-0.335,-0.122,-2.68,-2.73,-1.07
2022-12-08 18:26:06.5700,-0.429,-0.325,-0.233,-2.93,-2.66,-0.77
2022-12-08 18:26:06.5800,-0.403,-0.318,-0.316,-3.31,-2.75,0.12
2022-12-08 18:26:06.5900,-0.396,-0.336,-0.343,-3.53,-2.79,0.79
2022-12-08 18:26:06.6000,-0.416,-0.374,-0.317,-3.58,-2.6,0.95
2022-12-08 18:26:06.6100,-0.463,-0.431,-0.188,-3.38,-2.21,0.63
2022-12-08 18:26:06.6200,-0.487,-0.493,-0.08,-2.91,-1.63,-0.71
2022-12-08 18:26:06.6310,-0.515,-0.545,-0.026,-2.66,-1.0,-1.85
2022-12-08 18:26:06.6430,-0.531,-0.588,-0.012,-2.39,-0.44,-2.49
2022-12-08 18:26:06.6510,-0.535,-0.637,-0.054,-2.22,0.03,-2.73
2022-12-08 18:26:06.6610,-0.547,-0.68,-0.107,-2.19,0.55,-2.41
2022-12-08 18:26:06.6710,-0.595,-0.698,-0.129,-2.08,1.02,-1.95
2022-12-08 18:26:06.6810,-0.654,-0.674,-0.138,-1.64,1.25,-1.78
2022-12-08 18:26:06.6910,-0.72,-0.631,-0.132,-1.07,1.06,-1.72
2022-12-08 18:26:06.7010,-0.762,-0.608,-0.202,-0.43,0.68,-1.81
2022-12-08 18:26:06.7110,-0.794,-0.629,-0.297,-0.04,0.48,-1.16
2022-12-08 18:26:06.7210,-0.846,-0.67,-0.336,0.26,0.72,-0.24
2022-12-08 18:26:06.7310,-0.909,-0.714,-0.352,0.76,1.14,0.14
2022-12-08 18:26:06.7410,-0.971,-0.769,-0.318,1.36,1.58,0.3
2022-12-08 18:26:06.7510,-1.017,-0.797,-0.221,1.96,2.13,-0.01
2022-12-08 18:26:06.7610,-1.052,-0.806,-0.095,2.4,2.41,-0.94
2022-12-08 18:26:06.7710,-1.093,-0.799,-0.057,2.72,2.5,-2.14
2022-12-08 18:26:06.7810,-1.124,-0.816,-0.155,3.11,2.44,-2.48
2022-12-08 18:26:06.7910,-1.108,-0.81,-0.268,3.4,2.61,-1.49
2022-12-08 18:26:06.8010,-1.088,-0.799,-0.349,3.23,2.54,-0.36
2022-12-08 18:26:06.8110,-1.02,-0.788,-0.415,3.03,2.43,0.47
2022-12-08 18:26:06.8210,-0.96,-0.78,-0.503,2.35,2.32,1.17
2022-12-08 18:26:06.8310,-0.905,-0.747,-0.575,1.74,2.24,2.09
2022-12-08 18:26:06.8410,-0.84,-0.696,-0.607,1.18,1.9,2.86
2022-12-08 18:26:06.8510,-0.776,-0.632,-0.619,0.52,1.4,3.25
2022-12-08 18:26:06.8610,-0.739,-0.57,-0.616,-0.12,0.76,3.44
2022-12-08 18:26:06.8710,-0.711,-0.507,-0.582,-0.51,0.14,3.48
2022-12-08 18:26:06.8810,-0.66,-0.44,-0.545,-0.79,-0.48,3.2
2022-12-08 18:26:06.8910,-0.613,-0.355,-0.541,-1.3,-1.14,2.88
2022-12-08 18:26:06.9010,-0.637,-0.289,-0.564,-1.77,-1.98,2.86
2022-12-08 18:26:06.9110,-0.709,-0.253,-0.594,-1.53,-2.62,3.08
2022-12-08 18:26:06.9210,-0.77,-0.265,-0.626,-0.82,-2.98,3.37
2022-12-08 18:26:06.9310,-0.856,-0.317,-0.606,-0.22,-2.86,3.67
2022-12-08 18:26:06.9410,-0.961,-0.376,-0.547,0.63,-2.36,3.48
2022-12-08 18:26:06.9510,-1.064,-0.428,-0.46,1.66,-1.78,2.91
2022-12-08 18:26:06.9610,-1.167,-0.541,-0.381,2.65,-1.26,2.07
2022-12-08 18:26:06.9710,-1.25,-0.667,-0.267,3.62,-0.11,1.35
2022-12-08 18:26:06.9810,-1.213,-0.776,-0.094,4.39,1.15,0.31
2022-12-08 18:26:06.9910,-1.11,-0.842,0.047,3.96,2.26,-1.27
2022-12-08 18:26:07.0020,-1.035,-0.825,0.072,2.89,2.94,-2.49
2022-12-08 18:26:07.0110,-0.931,-0.721,0.032,2.08,2.81,-2.56
2022-12-08 18:26:07.0220,-0.829,-0.605,-0.013,1.01,1.83,-1.99
2022-12-08 18:26:07.0310,-0.747,-0.529,-0.063,-0.05,0.73,-1.39
2022-12-08 18:26:07.0410,-0.686,-0.478,-0.126,-0.91,0.02,-0.75
2022-12-08 18:26:07.0520,-0.633,-0.468,-0.21,-1.54,-0.45,-0.03
2022-12-08 18:26:07.0620,-0.586,-0.454,-0.295,-2.09,-0.52,0.87
2022-12-08 18:26:07.0720,-0.529,-0.395,-0.346,-2.56,-0.64,1.76
2022-12-08 18:26:07.0820,-0.481,-0.344,-0.326,-3.14,-1.2,2.31
2022-12-08 18:26:07.0920,-0.452,-0.319,-0.296,-3.62,-1.68,2.15
2022-12-08 18:26:07.1020,-0.434,-0.293,-0.254,-3.92,-1.92,1.88
2022-12-08 18:26:07.1120,-0.408,-0.252,-0.187,-4.11,-2.16,1.49
2022-12-08 18:26:07.1220,-0.394,-0.204,-0.146,-4.37,-2.56,0.83
2022-12-08 18:26:07.1320,-0.42,-0.174,-0.077,-4.51,-3.02,0.4
2022-12-08 18:26:07.1420,-0.469,-0.193,-0.013,-4.26,-3.3,-0.32
2022-12-08 18:26:07.1520,-0.506,-0.214,0.03,-3.77,-3.11,-1.01
2022-12-08 18:26:07.1620,-0.551,-0.223,0.078,-3.4,-2.89,-1.49
2022-12-08 18:26:07.1720,-0.583,-0.239,0.11,-2.95,-2.81,-2.03
2022-12-08 18:26:07.1820,-0.644,-0.267,0.113,-2.64,-2.64,-2.4
2022-12-08 18:26:07.1920,-0.687,-0.28,0.102,-2.03,-2.36,-2.48
2022-12-08 18:26:07.2020,-0.77,-0.299,0.089,-1.61,-2.23,-2.39
2022-12-08 18:26:07.2120,-0.823,-0.335,0.081,-0.79,-2.05,-2.26
2022-12-08 18:26:07.2220,-0.832,-0.374,0.085,-0.27,-1.7,-2.16
2022-12-08 18:26:07.2320,-0.84,-0.437,0.078,-0.18,-1.34,-2.16
2022-12-08 18:26:07.2420,-0.868,-0.551,0.038,-0.09,-0.74,-2.06
2022-12-08 18:26:07.2520,-0.979,-0.727,-0.043,0.19,0.37,-1.66
2022-12-08 18:26:07.2620,-1.092,-0.87,-0.156,1.29,2.09,-0.9
2022-12-08 18:26:07.2720,-1.148,-0.963,-0.16,2.39,3.5,0.18
2022-12-08 18:26:07.2820,-1.157,-1.018,0.034,2.95,4.4,0.24
2022-12-08 18:26:07.2920,-1.121,-1.043,0.306,3.02,4.92,-1.54
2022-12-08 18:26:07.3020,-1.211,-1.123,0.472,2.66,5.15,-3.99
2022-12-08 18:26:07.3120,-1.325,-1.095,0.456,3.51,5.93,-5.32
2022-12-08 18:26:07.3220,-1.272,-0.797,0.287,4.61,5.66,-4.84
2022-12-08 18:26:07.3320,-1.24,-0.559,0.039,4.06,2.76,-2.9
2022-12-08 18:26:07.3420,-1.19,-0.443,-0.056,3.74,0.45,-0.2
2022-12-08 18:26:07.3520,-1.06,-0.33,0.092,3.23,-0.66,0.92
2022-12-08 18:26:07.3620,-0.986,-0.365,0.006,1.94,-1.73,-0.49
2022-12-08 18:26:07.3720,-1.002,-0.461,-0.261,1.18,-1.33,0.29
2022-12-08 18:26:07.3820,-1.001,-0.446,-0.393,1.31,-0.33,2.83
2022-12-08 18:26:07.3920,-1.039,-0.344,-0.439,1.25,-0.42,4.05
2022-12-08 18:26:07.4020,-1.013,-0.16,-0.451,1.6,-1.35,4.52
2022-12-08 18:26:07.4120,-0.919,-0.149,-0.395,1.32,-3.12,4.72
2022-12-08 18:26:07.4220,-0.842,-0.23,-0.288,0.38,-3.2,4.29
2022-12-08 18:26:07.4320,-0.874,-0.304,-0.184,-0.37,-2.38,3.36
2022-12-08 18:26:07.4450,-0.967,-0.416,-0.146,-0.05,-1.66,2.4
2022-12-08 18:26:07.4530,-1.066,-0.567,-0.174,0.86,-0.56,2.01
2022-12-08 18:26:07.4630,-1.168,-0.714,-0.21,1.83,0.9,2.21
2022-12-08 18:26:07.4730,-1.203,-0.775,-0.201,2.83,2.33,2.45
2022-12-08 18:26:07.4830,-1.202,-0.758,-0.105,3.18,2.91,2.25
2022-12-08 18:26:07.4920,-1.139,-0.716,0.025,3.19,2.71,1.2
2022-12-08 18:26:07.5030,-1.051,-0.659,0.08,2.6,2.24,-0.18
2022-12-08 18:26:07.5130,-0.954,-0.587,0.086,1.76,1.65,-0.83
2022-12-08 18:26:07.5230,-0.893,-0.537,0.065,0.83,0.91,-1.01
2022-12-08 18:26:07.5330,-0.857,-0.48,0.03,0.25,0.39,-0.94
2022-12-08 18:26:07.5430,-0.791,-0.419,0.0,-0.08,-0.19,-0.73
2022-12-08 18:26:07.5530,-0.721,-0.374,-0.01,-0.72,-0.8,-0.58
2022-12-08 18:26:07.5630,-0.669,-0.338,-0.003,-1.39,-1.26,-0.63
2022-12-08 18:26:07.5730,-0.616,-0.307,0.018,-1.87,-1.63,-0.85
2022-12-08 18:26:07.5830,-0.553,-0.281,0.017,-2.37,-1.95,-1.21
2022-12-08 18:26:07.5930,-0.508,-0.251,-0.005,-2.95,-2.22,-1.37
2022-12-08 18:26:07.6030,-0.482,-0.226,-0.05,-3.36,-2.53,-1.32
2022-12-08 18:26:07.6130,-0.476,-0.222,-0.101,-3.59,-2.77,-1.05
2022-12-08 18:26:07.6230,-0.475,-0.232,-0.151,-3.62,-2.8,-0.71
2022-12-08 18:26:07.6330,-0.48,-0.237,-0.196,-3.6,-2.7,-0.38
2022-12-08 18:26:07.6430,-0.495,-0.27,-0.211,-3.52,-2.64,-0.08
2022-12-08 18:26:07.6530,-0.502,-0.31,-0.206,-3.27,-1.87,-0.21
2022-12-08 18:26:07.6640,-0.526,-0.357,-0.186,-3.27,-1.87,-0.21
2022-12-08 18:26:07.6730,-0.566,-0.402,-0.158,-2.64,-0.9,-0.86
2022-12-08 18:26:07.6840,-0.613,-0.45,-0.123,-2.64,-0.9,-0.86
2022-12-08 18:26:07.6930,-0.667,-0.498,-0.08,-2.18,-0.38,-1.28
2022-12-08 18:26:07.7030,-0.7,-0.542,-0.035,-1.66,0.16,-1.79
2022-12-08 18:26:07.7130,-0.734,-0.576,-0.004,-1.35,0.65,-2.31
2022-12-08 18:26:07.7230,-0.759,-0.587,0.003,-1.04,1.04,-2.69
2022-12-08 18:26:07.7330,-0.774,-0.589,-0.007,-0.8,1.22,-2.83
2022-12-08 18:26:07.7430,-0.81,-0.581,-0.04,-0.66,1.3,-2.8
2022-12-08 18:26:07.7530,-0.846,-0.568,-0.121,-0.32,1.28,-2.53
2022-12-08 18:26:07.7630,-0.871,-0.562,-0.215,0.02,1.19,-1.78
2022-12-08 18:26:07.7730,-0.912,-0.56,-0.271,0.26,1.17,-0.87
2022-12-08 18:26:07.7830,-0.926,-0.588,-0.301,0.65,1.17,-0.33
2022-12-08 18:26:07.7930,-0.967,-0.624,-0.32,0.78,1.48,-0.05
2022-12-08 18:26:07.8030,-0.982,-0.653,-0.289,1.18,1.85,0.13
2022-12-08 18:26:07.8130,-1.018,-0.689,-0.232,1.31,2.17,-0.19
2022-12-08 18:26:07.8230,-1.071,-0.725,-0.229,1.66,2.55,-0.77
2022-12-08 18:26:07.8330,-1.125,-0.745,-0.284,2.17,2.93,-0.81
2022-12-08 18:26:07.8430,-1.162,-0.766,-0.319,2.68,3.16,-0.27
2022-12-08 18:26:07.8530,-1.178,-0.756,-0.334,3.02,3.4,0.1
2022-12-08 18:26:07.8640,-1.175,-0.724,-0.353,3.15,3.33,0.27
2022-12-08 18:26:07.8730,-1.155,-0.671,-0.388,3.1,3.03,0.51
2022-12-08 18:26:07.8830,-1.113,-0.613,-0.406,2.87,2.52,0.92
2022-12-08 18:26:07.8940,-1.036,-0.543,-0.403,2.43,1.95,1.17
2022-12-08 18:26:07.9030,-0.951,-0.421,-0.42,1.65,1.26,1.24
2022-12-08 18:26:07.9140,-0.863,-0.281,-0.469,0.79,0.07,1.48
2022-12-08 18:26:07.9240,-0.805,-0.177,-0.507,-0.09,-1.31,2.02
2022-12-08 18:26:07.9340,-0.781,-0.121,-0.553,-0.68,-2.34,2.45
2022-12-08 18:26:07.9440,-0.799,-0.103,-0.641,-0.92,-2.88,2.94
2022-12-08 18:26:07.9540,-0.865,-0.106,-0.739,-0.75,-3.05,3.81
2022-12-08 18:26:07.9640,-0.948,-0.106,-0.798,-0.11,-3.02,4.76
2022-12-08 18:26:07.9740,-1.039,-0.106,-0.787,0.71,-3.02,5.33
2022-12-08 18:26:07.9840,-1.113,-0.119,-0.684,1.61,-3.01,5.23
2022-12-08 18:26:07.9940,-1.19,-0.125,-0.533,2.33,-2.88,4.24
2022-12-08 18:26:08.0040,-1.259,-0.149,-0.358,3.07,-2.81,2.77
2022-12-08 18:26:08.0140,-1.275,-0.225,-0.202,3.73,-2.56,1.1
2022-12-08 18:26:08.0240,-1.265,-0.315,-0.07,3.87,-1.79,-0.39
2022-12-08 18:26:08.0340,-1.206,-0.398,0.024,3.74,-0.89,-1.62
2022-12-08 18:26:08.0440,-1.118,-0.454,0.06,3.12,-0.06,-2.43
2022-12-08 18:26:08.0540,-1.034,-0.435,0.061,2.21,0.52,-2.64
2022-12-08 18:26:08.0640,-0.944,-0.399,0.019,1.34,0.37,-2.5
2022-12-08 18:26:08.0740,-0.856,-0.381,-0.064,0.41,0.04,-1.94
2022-12-08 18:26:08.0840,-0.768,-0.367,-0.163,-0.49,-0.1,-1.0
2022-12-08 18:26:08.0940,-0.717,-0.357,-0.236,-1.38,-0.22,0.08
2022-12-08 18:26:08.1060,-0.678,-0.355,-0.289,-1.91,-0.28,0.88
2022-12-08 18:26:08.1140,-0.621,-0.346,-0.345,-2.31,-0.28,1.46
2022-12-08 18:26:08.1240,-0.58,-0.316,-0.366,-2.89,-0.34,2.06
2022-12-08 18:26:08.1340,-0.579,-0.271,-0.343,-3.31,-0.61,2.3
2022-12-08 18:26:08.1440,-0.571,-0.209,-0.276,-3.34,-1.03,2.1
2022-12-08 18:26:08.1540,-0.561,-0.159,-0.171,-3.42,-1.61,1.47
2022-12-08 18:26:08.1640,-0.541,-0.133,-0.072,-3.53,-2.1,0.46
2022-12-08 18:26:08.1740,-0.555,-0.138,-0.008,-3.72,-2.35,-0.5
2022-12-08 18:26:08.1840,-0.599,-0.172,-0.025,-3.59,-2.3,-1.15
2022-12-08 18:26:08.1940,-0.616,-0.166,-0.036,-3.15,-1.96,-1.01
2022-12-08 18:26:08.2040,-0.639,-0.164,-0.005,-2.98,-2.03,-0.94
2022-12-08 18:26:08.2140,-0.643,-0.182,0.048,-2.75,-2.06,-1.27
2022-12-08 18:26:08.2240,-0.636,-0.193,0.109,-2.7,-1.9,-1.81
2022-12-08 18:26:08.2340,-0.649,-0.204,0.176,-2.76,-1.8,-2.41
2022-12-08 18:26:08.2440,-0.673,-0.222,0.228,-2.63,-1.69,-3.07
2022-12-08 18:26:08.2540,-0.721,-0.24,0.241,-2.4,-1.52,-3.57
2022-12-08 18:26:08.2640,-0.785,-0.257,0.192,-1.93,-1.33,-3.68
2022-12-08 18:26:08.2740,-0.859,-0.296,0.081,-1.31,-1.16,-3.17
2022-12-08 18:26:08.2840,-0.912,-0.346,-0.049,-0.59,-0.78,-2.05
2022-12-08 18:26:08.2950,-0.985,-0.426,-0.172,-0.07,-0.28,-0.76
2022-12-08 18:26:08.3040,-1.062,-0.526,-0.238,0.65,0.5,0.45
2022-12-08 18:26:08.3150,-1.151,-0.6,-0.175,1.4,1.49,1.07
2022-12-08 18:26:08.3250,-1.19,-0.607,-0.003,2.27,2.22,0.46
2022-12-08 18:26:08.3340,-1.201,-0.551,0.238,2.65,2.28,-1.17
2022-12-08 18:26:08.3450,-1.175,-0.56,0.426,2.74,1.73,-3.39
2022-12-08 18:26:08.3550,-1.235,-0.595,0.439,2.45,1.82,-4.99
2022-12-08 18:26:08.3650,-1.363,-0.565,0.397,3.01,2.2,-4.77
2022-12-08 18:26:08.3750,-1.385,-0.381,0.34,4.23,1.97,-4.0
2022-12-08 18:26:08.3850,-1.357,-0.22,0.194,4.43,0.22,-3.17
2022-12-08 18:26:08.3950,-1.3,-0.246,-0.018,4.14,-1.31,-1.59
2022-12-08 18:26:08.4050,-1.181,-0.279,-0.162,3.57,-1.03,0.52
2022-12-08 18:26:08.4150,-1.157,-0.382,-0.26,2.39,-0.68,1.87
2022-12-08 18:26:08.4250,-1.112,-0.398,-0.378,2.13,0.37,2.76
2022-12-08 18:26:08.4350,-1.087,-0.342,-0.45,1.68,0.57,3.86
2022-12-08 18:26:08.4450,-1.106,-0.283,-0.459,1.42,0.06,4.56
2022-12-08 18:26:08.4550,-1.083,-0.205,-0.428,1.59,-0.48,4.68
2022-12-08 18:26:08.4650,-1.047,-0.182,-0.321,1.35,-1.2,4.42
2022-12-08 18:26:08.4750,-1.012,-0.24,-0.191,1.0,-1.42,3.41
2022-12-08 18:26:08.4850,-1.018,-0.301,-0.104,0.65,-0.85,2.16
2022-12-08 18:26:08.4950,-1.073,-0.352,-0.061,0.71,-0.26,1.29
2022-12-08 18:26:08.5050,-1.1,-0.396,-0.06,1.26,0.23,0.8
2022-12-08 18:26:08.5150,-1.122,-0.423,-0.072,1.52,0.67,0.71
2022-12-08 18:26:08.5250,-1.127,-0.429,-0.088,1.74,0.92,0.71
2022-12-08 18:26:08.5350,-1.09,-0.426,-0.113,1.78,0.98,0.73
2022-12-08 18:26:08.5450,-1.054,-0.416,-0.136,1.42,0.96,0.83
2022-12-08 18:26:08.5550,-1.041,-0.398,-0.15,1.06,0.89,0.9
2022-12-08 18:26:08.5650,-1.017,-0.373,-0.167,0.93,0.75,0.9
2022-12-08 18:26:08.5750,-0.968,-0.348,-0.168,0.69,0.56,0.91
2022-12-08 18:26:08.5850,-0.938,-0.329,-0.157,0.2,0.38,0.77
2022-12-08 18:26:08.5950,-0.891,-0.295,-0.146,-0.09,0.26,0.49
2022-12-08 18:26:08.6050,-0.832,-0.245,-0.136,-1.13,-0.43,-0.1
2022-12-08 18:26:08.6180,-0.753,-0.186,-0.131,-1.13,-0.43,-0.1
2022-12-08 18:26:08.6250,-0.673,-0.125,-0.122,-1.88,-0.96,-0.36
2022-12-08 18:26:08.6350,-0.591,-0.074,-0.127,-2.65,-1.52,-0.66
2022-12-08 18:26:08.6450,-0.538,-0.044,-0.136,-3.41,-1.98,-0.81
2022-12-08 18:26:08.6550,-0.513,-0.026,-0.152,-3.89,-2.25,-0.92
2022-12-08 18:26:08.6650,-0.5,-0.029,-0.168,-4.11,-2.4,-0.94
2022-12-08 18:26:08.6750,-0.501,-0.051,-0.194,-4.19,-2.36,-0.94
2022-12-08 18:26:08.6850,-0.514,-0.088,-0.222,-4.15,-2.12,-0.81
2022-12-08 18:26:08.6950,-0.55,-0.126,-0.233,-3.99,-1.75,-0.64
2022-12-08 18:26:08.7050,-0.581,-0.158,-0.232,-3.62,-1.36,-0.62
2022-12-08 18:26:08.7150,-0.614,-0.213,-0.236,-3.3,-1.02,-0.71
2022-12-08 18:26:08.7250,-0.649,-0.272,-0.233,-2.95,-0.45,-0.75
2022-12-08 18:26:08.7350,-0.695,-0.324,-0.214,-2.6,0.17,-0.83
2022-12-08 18:26:08.7450,-0.748,-0.373,-0.189,-2.15,0.72,-1.07
2022-12-08 18:26:08.7560,-0.799,-0.42,-0.169,-1.62,1.24,-1.35
2022-12-08 18:26:08.7660,-0.839,-0.442,-0.155,-1.12,1.74,-1.57
2022-12-08 18:26:08.7760,-0.865,-0.445,-0.141,-0.73,2.0,-1.74
2022-12-08 18:26:08.7860,-0.879,-0.427,-0.132,-0.48,2.08,-1.91
2022-12-08 18:26:08.7960,-0.9,-0.395,-0.136,-0.34,1.94,-2.04
2022-12-08 18:26:08.8060,-0.916,-0.366,-0.162,-0.13,1.67,-2.03
2022-12-08 18:26:08.8160,-0.955,-0.346,-0.212,0.03,1.42,-1.81
2022-12-08 18:26:08.8260,-1.012,-0.339,-0.271,0.41,1.26,-1.34
2022-12-08 18:26:08.8360,-1.088,-0.354,-0.311,0.97,1.21,-0.78
2022-12-08 18:26:08.8460,-1.142,-0.372,-0.327,1.72,1.38,-0.39
2022-12-08 18:26:08.8560,-1.217,-0.396,-0.295,2.25,1.57,-0.24
2022-12-08 18:26:08.8660,-1.269,-0.42,-0.213,2.98,1.8,-0.55
2022-12-08 18:26:08.8760,-1.299,-0.432,-0.141,3.49,2.02,-1.34
2022-12-08 18:26:08.8860,-1.351,-0.445,-0.194,3.78,2.12,-2.03
2022-12-08 18:26:08.8960,-1.369,-0.454,-0.309,4.28,2.23,-1.47
2022-12-08 18:26:08.9060,-1.351,-0.454,-0.37,4.46,2.28,-0.3
2022-12-08 18:26:08.9160,-1.273,-0.447,-0.385,4.27,2.22,0.35
2022-12-08 18:26:08.9260,-1.175,-0.408,-0.403,3.49,2.1,0.57
2022-12-08 18:26:08.9360,-1.115,-0.333,-0.431,2.51,1.68,0.84
2022-12-08 18:26:08.9460,-1.063,-0.274,-0.472,1.89,0.9,1.24
2022-12-08 18:26:08.9560,-1.009,-0.236,-0.515,1.35,0.28,1.76
2022-12-08 18:26:08.9660,-0.964,-0.195,-0.553,0.79,-0.12,2.31
2022-12-08 18:26:08.9760,-0.915,-0.143,-0.571,0.32,-0.55,2.81
2022-12-08 18:26:08.9860,-0.85,-0.088,-0.582,-0.19,-1.1,3.1
2022-12-08 18:26:08.9960,-0.808,-0.049,-0.594,-0.83,-1.68,3.31
2022-12-08 18:26:09.0060,-0.792,-0.022,-0.547,-1.25,-2.09,3.48
2022-12-08 18:26:09.0160,-0.841,-0.01,-0.576,-1.4,-2.36,3.0
2022-12-08 18:26:09.0280,-0.924,0.02,-0.638,-0.9,-2.49,3.23
2022-12-08 18:26:09.0360,-1.025,0.072,-0.669,-0.08,-2.77,3.76
2022-12-08 18:26:09.0460,-1.138,0.114,-0.632,0.92,-3.27,4.03
2022-12-08 18:26:09.0560,-1.233,0.128,-0.533,2.03,-3.68,3.64
2022-12-08 18:26:09.0660,-1.251,0.051,-0.339,2.96,-3.81,2.68
2022-12-08 18:26:09.0760,-1.199,-0.069,-0.144,3.12,-3.05,0.83
2022-12-08 18:26:09.0860,-1.147,-0.186,-0.012,2.59,-1.85,-0.99
2022-12-08 18:26:09.0960,-1.1,-0.253,0.095,2.03,-0.67,-2.14
2022-12-08 18:26:09.1060,-1.09,-0.261,0.14,1.51,0.03,-3.02
2022-12-08 18:26:09.1160,-1.02,-0.282,0.078,1.37,0.17,-3.28
2022-12-08 18:26:09.1260,-0.94,-0.296,-0.032,-0.2,0.65,-1.29
2022-12-08 18:26:09.1380,-0.876,-0.262,-0.128,-0.2,0.65,-1.29
2022-12-08 18:26:09.1460,-0.814,-0.233,-0.199,-0.86,0.38,-0.22
2022-12-08 18:26:09.1570,-0.772,-0.219,-0.239,-1.5,0.17,0.58
2022-12-08 18:26:09.1670,-0.725,-0.196,-0.251,-1.94,0.09,1.06
2022-12-08 18:26:09.1770,-0.684,-0.171,-0.236,-2.42,-0.08,1.26
2022-12-08 18:26:09.1870,-0.636,-0.15,-0.2,-2.85,-0.27,1.19
2022-12-08 18:26:09.1970,-0.6,-0.121,-0.127,-3.33,-0.43,0.89
2022-12-08 18:26:09.2070,-0.575,-0.082,-0.081,-3.7,-0.67,0.23
2022-12-08 18:26:09.2170,-0.54,-0.031,-0.053,-3.95,-1.03,-0.19
2022-12-08 18:26:09.2270,-0.524,-0.001,-0.009,-4.3,-1.5,-0.45
2022-12-08 18:26:09.2370,-0.528,-0.018,0.01,-4.46,-1.79,-0.89
2022-12-08 18:26:09.2470,-0.56,-0.041,0.002,-4.42,-1.62,-1.1
2022-12-08 18:26:09.2570,-0.584,-0.039,0.006,-4.1,-1.4,-1.05
2022-12-08 18:26:09.2670,-0.628,-0.024,0.032,-3.86,-1.44,-1.12
2022-12-08 18:26:09.2770,-0.67,-0.009,0.07,-3.42,-1.6,-1.41
2022-12-08 18:26:09.2870,-0.703,0.001,0.112,-3.01,-1.77,-1.8
2022-12-08 18:26:09.2970,-0.758,-0.008,0.162,-2.67,-1.89,-2.21
2022-12-08 18:26:09.3070,-0.788,-0.052,0.206,-2.13,-1.84,-2.68
2022-12-08 18:26:09.3170,-0.839,-0.124,0.21,-1.83,-1.44,-3.09
2022-12-08 18:26:09.3270,-0.898,-0.208,0.146,-0.75,0.01,-2.44
2022-12-08 18:26:09.3390,-0.979,-0.314,0.047,-0.75,0.01,-2.44
2022-12-08 18:26:09.3470,-1.072,-0.439,-0.023,0.06,1.03,-1.46
2022-12-08 18:26:09.3570,-1.255,-0.515,-0.09,0.97,2.26,-0.79
2022-12-08 18:26:09.3670,-1.371,-0.423,-0.102,2.76,3.03,-0.19
2022-12-08 18:26:09.3770,-1.378,-0.358,0.015,3.9,2.15,-0.1
2022-12-08 18:26:09.3890,-1.325,-0.351,0.255,3.96,1.54,-1.18
2022-12-08 18:26:09.3970,-1.249,-0.347,0.506,3.42,1.49,-3.37
2022-12-08 18:26:09.4070,-1.289,-0.339,0.599,2.65,1.48,-5.55
2022-12-08 18:26:09.4170,-1.334,-0.315,0.538,3.44,1.28,-5.15
2022-12-08 18:26:09.4290,-1.365,-0.155,0.342,3.74,-0.24,-2.99
2022-12-08 18:26:09.4380,-1.347,-0.023,0.104,3.74,-0.24,-2.99
2022-12-08 18:26:09.4470,-1.263,0.019,-0.168,3.56,-1.5,-0.57
2022-12-08 18:26:09.4570,-1.144,0.028,-0.33,2.73,-1.86,2.06
2022-12-08 18:26:09.4670,-1.113,-0.033,-0.391,1.55,-1.91,3.56
2022-12-08 18:26:09.4770,-1.112,-0.064,-0.433,1.22,-0.9,4.41
2022-12-08 18:26:09.4900,-1.129,-0.081,-0.48,1.22,-0.9,4.41
2022-12-08 18:26:09.4970,-1.164,-0.102,-0.476,1.38,-0.68,4.88
2022-12-08 18:26:09.5080,-1.134,-0.117,-0.394,1.72,-0.43,4.92
2022-12-08 18:26:09.5170,-1.091,-0.1,-0.244,1.42,-0.26,4.21
2022-12-08 18:26:09.5270,-1.148,-0.106,-0.132,1.57,-0.39,1.8
2022-12-08 18:26:09.5400,-1.201,-0.141,-0.095,1.57,-0.39,1.8
2022-12-08 18:26:09.5470,-1.228,-0.199,-0.101,2.09,-0.08,1.47
2022-12-08 18:26:09.5580,-1.286,-0.27,-0.118,2.36,0.44,1.53
2022-12-08 18:26:09.5670,-1.316,-0.319,-0.139,2.93,1.1,1.67
2022-12-08 18:26:09.5780,-1.329,-0.317,-0.119,3.24,1.54,1.82
2022-12-08 18:26:09.5880,-1.248,-0.275,-0.086,3.37,1.47,1.54
2022-12-08 18:26:09.5980,-1.162,-0.238,-0.076,2.58,1.0,1.1
2022-12-08 18:26:09.6080,-1.109,-0.224,-0.101,1.74,0.58,0.86
2022-12-08 18:26:09.6180,-1.049,-0.207,-0.129,1.23,0.39,0.95
2022-12-08 18:26:09.6280,-0.989,-0.209,-0.127,0.65,0.17,1.08
2022-12-08 18:26:09.6380,-0.926,-0.235,-0.117,0.08,0.15,0.91
2022-12-08 18:26:09.6480,-0.865,-0.221,-0.1,-0.53,0.37,0.67
2022-12-08 18:26:09.6580,-0.802,-0.193,-0.073,-1.11,0.2,0.36
2022-12-08 18:26:09.6680,-0.732,-0.14,-0.056,-1.72,-0.1,-0.05
2022-12-08 18:26:09.6780,-0.657,-0.065,-0.044,-3.1,-1.37,-0.67
2022-12-08 18:26:09.6900,-0.611,0.023,-0.009,-3.1,-1.37,-0.67
2022-12-08 18:26:09.6980,-0.578,0.081,0.013,-3.52,-2.24,-1.18
2022-12-08 18:26:09.7080,-0.546,0.099,-0.003,-3.82,-2.82,-1.58
2022-12-08 18:26:09.7180,-0.527,0.077,-0.052,-4.11,-3.0,-1.63
2022-12-08 18:26:09.7280,-0.515,0.03,-0.115,-4.34,-2.32,-0.87
2022-12-08 18:26:09.7400,-0.538,-0.021,-0.133,-4.34,-2.32,-0.87
2022-12-08 18:26:09.7480,-0.555,-0.059,-0.122,-4.09,-1.8,-0.82
2022-12-08 18:26:09.7580,-0.568,-0.1,-0.109,-3.91,-1.41,-1.03
2022-12-08 18:26:09.7680,-0.578,-0.14,-0.105,-3.76,-0.98,-1.27
2022-12-08 18:26:09.7780,-0.597,-0.176,-0.107,-3.43,-0.18,-1.51
2022-12-08 18:26:09.7900,-0.618,-0.205,-0.109,-3.43,-0.18,-1.51
2022-12-08 18:26:09.7980,-0.648,-0.236,-0.115,-3.2,0.15,-1.59
2022-12-08 18:26:09.8080,-0.7,-0.271,-0.135,-2.9,0.51,-1.62
2022-12-08 18:26:09.8180,-0.758,-0.292,-0.152,-2.38,0.91,-1.5
2022-12-08 18:26:09.8280,-0.823,-0.298,-0.145,-1.8,1.17,-1.39
2022-12-08 18:26:09.8400,-0.885,-0.298,-0.131,-1.15,1.28,-1.51
2022-12-08 18:26:09.8480,-0.955,-0.295,-0.131,-0.54,1.35,-1.69
2022-12-08 18:26:09.8580,-1.031,-0.292,-0.133,0.15,1.36,-1.72
2022-12-08 18:26:09.8680,-1.107,-0.296,-0.133,0.89,1.39,-1.73
2022-12-08 18:26:09.8780,-1.191,-0.313,-0.168,2.46,1.68,-1.41
2022-12-08 18:26:09.8900,-1.243,-0.341,-0.24,2.46,1.68,-1.41
2022-12-08 18:26:09.8980,-1.311,-0.346,-0.254,2.97,1.96,-0.72
2022-12-08 18:26:09.9080,-1.341,-0.358,-0.206,3.65,2.02,-0.59
2022-12-08 18:26:09.9180,-1.365,-0.369,-0.155,3.94,2.13,-1.07
2022-12-08 18:26:09.9280,-1.407,-0.372,-0.186,4.17,2.22,-1.56
2022-12-08 18:26:09.9390,-1.421,-0.378,-0.24,4.59,2.24,-1.25
2022-12-08 18:26:09.9480,-1.411,-0.376,-0.29,4.72,2.28,-0.69
2022-12-08 18:26:09.9590,-1.379,-0.345,-0.364,4.61,2.23,-0.16
2022-12-08 18:26:09.9680,-1.32,-0.302,-0.462,4.28,1.91,0.63
2022-12-08 18:26:09.9780,-1.213,-0.237,-0.527,3.68,1.47,1.67
2022-12-08 18:26:09.9880,-1.083,-0.162,-0.538,2.6,0.82,2.41
2022-12-08 18:26:09.9990,-0.989,-0.096,-0.552,1.29,0.08,2.63
2022-12-08 18:26:10.0090,-0.924,-0.07,-0.557,0.34,-0.56,2.87
2022-12-08 18:26:10.0190,-0.864,-0.06,-0.573,-0.93,-0.91,3.25
2022-12-08 18:26:10.0310,-0.837,-0.033,-0.649,-0.93,-0.91,3.25
2022-12-08 18:26:10.0390,-0.85,0.009,-0.747,-1.22,-1.18,4.06
2022-12-08 18:26:10.0490,-0.888,0.057,-0.808,-1.09,-1.6,5.07
2022-12-08 18:26:10.0590,-0.948,0.096,-0.776,-0.72,-2.09,5.7
2022-12-08 18:26:10.0690,-1.028,0.131,-0.662,-0.14,-2.5,5.41
2022-12-08 18:26:10.0790,-1.145,0.155,-0.551,0.64,-2.86,4.33
2022-12-08 18:26:10.0890,-1.252,0.152,-0.442,1.78,-3.1,3.27
2022-12-08 18:26:10.0990,-1.309,0.119,-0.309,2.82,-3.07,2.24
2022-12-08 18:26:10.1090,-1.297,0.037,-0.181,3.38,-2.73,0.96
2022-12-08 18:26:10.1190,-1.224,-0.047,-0.078,3.25,-1.91,-0.27
2022-12-08 18:26:10.1290,-1.139,-0.094,-0.004,2.52,-1.07,-1.22
2022-12-08 18:26:10.1390,-1.031,-0.128,-0.004,1.66,-0.58,-1.86
2022-12-08 18:26:10.1490,-0.931,-0.146,-0.045,0.57,-0.23,-1.74
2022-12-08 18:26:10.1590,-0.849,-0.163,-0.101,-0.44,-0.03,-1.19
2022-12-08 18:26:10.1690,-0.794,-0.187,-0.16,-1.27,0.16,-0.5
2022-12-08 18:26:10.1790,-0.749,-0.217,-0.205,-1.83,0.43,0.21
2022-12-08 18:26:10.1890,-0.709,-0.246,-0.226,-2.3,0.76,0.79
2022-12-08 18:26:10.1990,-0.692,-0.262,-0.242,-2.71,1.08,1.11
2022-12-08 18:26:10.2090,-0.678,-0.267,-0.228,-2.89,1.28,1.38
2022-12-08 18:26:10.2190,-0.657,-0.242,-0.163,-3.05,1.36,1.35
2022-12-08 18:26:10.2290,-0.63,-0.2,-0.085,-3.26,1.15,0.82
2022-12-08 18:26:10.2390,-0.59,-0.132,-0.028,-3.54,0.77,0.13
2022-12-08 18:26:10.2490,-0.546,-0.032,0.03,-3.94,0.13,-0.35
2022-12-08 18:26:10.2590,-0.506,0.037,0.066,-4.38,-0.82,-0.87
2022-12-08 18:26:10.2690,-0.493,0.07,0.051,-4.77,-1.48,-1.2
2022-12-08 18:26:10.2790,-0.522,0.072,0.015,-4.9,-1.8,-1.07
2022-12-08 18:26:10.2890,-0.56,0.024,-0.021,-4.61,-1.81,-0.75
2022-12-08 18:26:10.2990,-0.59,-0.005,-0.027,-4.24,-1.34,-0.44
2022-12-08 18:26:10.3090,-0.623,-0.004,0.003,-3.94,-1.05,-0.44
2022-12-08 18:26:10.3190,-0.682,-0.002,0.048,-3.61,-1.08,-0.79
2022-12-08 18:26:10.3290,-0.745,-0.009,0.096,-3.03,-1.1,-1.29
2022-12-08 18:26:10.3390,-0.803,-0.032,0.14,-2.41,-1.06,-1.81
2022-12-08 18:26:10.3490,-0.885,-0.053,0.189,-1.83,-0.85,-2.27
2022-12-08 18:26:10.3590,-0.941,-0.094,0.232,-1.02,-0.68,-2.75
2022-12-08 18:26:10.3690,-0.998,-0.143,0.249,-0.47,-0.31,-3.17
2022-12-08 18:26:10.3790,-1.076,-0.186,0.185,0.1,0.13,-3.33
2022-12-08 18:26:10.3890,-1.15,-0.232,0.039,0.86,0.51,-2.7
2022-12-08 18:26:10.3990,-1.241,-0.269,-0.097,1.61,0.93,-1.29
2022-12-08 18:26:10.4090,-1.32,-0.271,-0.182,2.5,1.29,-0.02
2022-12-08 18:26:10.4190,-1.412,-0.233,-0.119,3.28,1.33,0.78
2022-12-08 18:26:10.4300,-1.432,-0.194,0.182,4.17,0.99,0.17
2022-12-08 18:26:10.4400,-1.353,-0.218,0.506,4.36,0.63,-2.69
2022-12-08 18:26:10.4490,-1.321,-0.276,0.551,3.56,0.88,-5.69
2022-12-08 18:26:10.4600,-1.395,-0.347,0.351,3.23,1.47,-5.89
2022-12-08 18:26:10.4700,-1.454,-0.338,0.197,3.95,2.2,-3.66
2022-12-08 18:26:10.4800,-1.399,-0.18,0.101,4.52,2.16,-1.88
2022-12-08 18:26:10.4900,-1.311,0.008,0.001,3.98,0.64,-0.75
2022-12-08 18:26:10.5000,-1.185,0.119,-0.071,3.11,-1.16,0.34
2022-12-08 18:26:10.5100,-1.118,0.099,-0.133,1.87,-2.21,1.04
2022-12-08 18:26:10.5200,-1.061,0.015,-0.214,1.21,-1.99,1.6
2022-12-08 18:26:10.5300,-1.002,0.017,-0.262,0.65,-1.13,2.34
2022-12-08 18:26:10.5400,-0.966,0.06,-0.317,0.06,-1.12,2.76
2022-12-08 18:26:10.5500,-0.939,0.135,-0.377,-0.3,-1.52,3.26
2022-12-08 18:26:10.5600,-0.913,0.217,-0.389,-0.56,-2.22,3.83
2022-12-08 18:26:10.5700,-0.943,0.205,-0.369,-0.82,-3.0,3.96
2022-12-08 18:26:10.5800,-1.022,0.127,-0.357,-0.53,-2.87,3.78
2022-12-08 18:26:10.5900,-1.122,0.033,-0.355,0.25,-2.13,3.68
2022-12-08 18:26:10.6000,-1.219,-0.06,-0.337,1.23,-1.23,3.65
2022-12-08 18:26:10.6100,-1.267,-0.149,-0.286,2.19,-0.34,3.44
2022-12-08 18:26:10.6200,-1.29,-0.196,-0.199,2.66,0.5,2.88
2022-12-08 18:26:10.6300,-1.316,-0.2,-0.08,2.89,0.95,1.99
2022-12-08 18:26:10.6400,-1.317,-0.193,0.024,3.15,0.95,0.78
2022-12-08 18:26:10.6500,-1.296,-0.178,0.066,3.16,0.84,-0.28
2022-12-08 18:26:10.6600,-1.251,-0.151,0.079,2.96,0.65,-0.75
2022-12-08 18:26:10.6700,-1.156,-0.121,0.09,2.53,0.34,-0.95
2022-12-08 18:26:10.6800,-1.026,-0.115,0.077,1.6,0.0,-1.16
2022-12-08 18:26:10.6900,-0.975,-0.135,0.079,0.33,-0.1,-1.15
2022-12-08 18:26:10.7000,-0.92,-0.137,0.06,-0.16,0.06,-1.31
2022-12-08 18:26:10.7100,-0.839,-0.121,0.027,-0.68,0.03,-1.3
2022-12-08 18:26:10.7200,-0.762,-0.089,-0.008,-1.45,-0.16,-1.18
2022-12-08 18:26:10.7300,-0.699,-0.049,-0.047,-2.17,-0.51,-1.05
2022-12-08 18:26:10.7400,-0.616,-0.017,-0.064,-2.76,-0.94,-0.9
2022-12-08 18:26:10.7500,-0.551,0.014,-0.079,-3.53,-1.29,-0.96
2022-12-08 18:26:10.7600,-0.502,0.052,-0.095,-4.12,-1.63,-1.04
2022-12-08 18:26:10.7700,-0.46,0.079,-0.114,-4.56,-2.02,-1.09
2022-12-08 18:26:10.7800,-0.433,0.091,-0.142,-4.93,-2.31,-1.08
2022-12-08 18:26:10.7900,-0.411,0.08,-0.176,-5.15,-2.43,-0.99
2022-12-08 18:26:10.8000,-0.404,0.04,-0.214,-5.33,-2.31,-0.81
2022-12-08 18:26:10.8100,-0.435,-0.028,-0.246,-5.36,-1.9,-0.58
2022-12-08 18:26:10.8200,-0.544,-0.106,-0.257,-5.03,-1.19,-0.37
2022-12-08 18:26:10.8310,-0.637,-0.163,-0.233,-3.94,-0.39,-0.36
2022-12-08 18:26:10.8400,-0.734,-0.233,-0.195,-3.01,0.22,-0.66
2022-12-08 18:26:10.8510,-0.825,-0.294,-0.151,-2.05,0.97,-1.09
2022-12-08 18:26:10.8610,-0.905,-0.345,-0.091,-1.15,1.63,-1.57
2022-12-08 18:26:10.8710,-0.974,-0.395,-0.029,-0.36,2.19,-2.2
2022-12-08 18:26:10.8810,-1.032,-0.42,0.018,0.32,2.75,-2.84
2022-12-08 18:26:10.8910,-1.06,-0.396,0.04,0.89,3.04,-3.34
2022-12-08 18:26:10.9010,-1.059,-0.344,-0.022,1.18,2.86,-3.59
2022-12-08 18:26:10.9110,-1.034,-0.301,-0.144,1.18,2.4,-3.02
2022-12-08 18:26:10.9210,-1.033,-0.262,-0.253,0.94,2.04,-1.88
2022-12-08 18:26:10.9310,-1.086,-0.232,-0.334,0.94,1.7,-0.85
2022-12-08 18:26:10.9410,-1.136,-0.214,-0.369,1.47,1.44,-0.09
2022-12-08 18:26:10.9510,-1.204,-0.229,-0.381,1.97,1.3,0.23
2022-12-08 18:26:10.9610,-1.246,-0.257,-0.338,2.63,1.46,0.35
2022-12-08 18:26:10.9710,-1.28,-0.282,-0.298,3.05,1.73,-0.08
2022-12-08 18:26:10.9810,-1.326,-0.294,-0.318,3.38,1.96,-0.47
2022-12-08 18:26:10.9910,-1.36,-0.288,-0.34,3.83,2.06,-0.25
2022-12-08 18:26:11.0010,-1.38,-0.268,-0.348,4.16,1.97,-0.02
2022-12-08 18:26:11.0110,-1.372,-0.248,-0.371,4.34,1.75,0.1
2022-12-08 18:26:11.0210,-1.326,-0.22,-0.412,4.25,1.51,0.37
2022-12-08 18:26:11.0310,-1.256,-0.178,-0.451,3.77,1.21,0.85
2022-12-08 18:26:11.0410,-1.151,-0.117,-0.497,3.06,0.76,1.33
2022-12-08 18:26:11.0510,-1.055,-0.045,-0.552,2.0,0.14,1.87
2022-12-08 18:26:11.0610,-0.985,0.009,-0.611,1.03,-0.58,2.5
2022-12-08 18:26:11.0710,-0.928,0.04,-0.675,0.32,-1.11,3.17
2022-12-08 18:26:11.0810,-0.88,0.063,-0.739,-0.26,-1.43,3.85
2022-12-08 18:26:11.0910,-0.866,0.093,-0.779,-0.74,-1.66,4.53
2022-12-08 18:26:11.1010,-0.881,0.134,-0.762,-0.88,-1.98,4.94
2022-12-08 18:26:11.1110,-0.931,0.183,-0.704,-0.73,-2.39,4.77
2022-12-08 18:26:11.1210,-1.008,0.224,-0.616,-0.24,-2.87,4.2
2022-12-08 18:26:11.1310,-1.089,0.266,-0.516,0.51,-3.28,3.33
2022-12-08 18:26:11.1410,-1.152,0.281,-0.43,1.31,-3.68,2.36
2022-12-08 18:26:11.1510,-1.19,0.233,-0.338,1.91,-3.82,1.55
2022-12-08 18:26:11.1610,-1.184,0.153,-0.208,2.25,-3.33,0.74
2022-12-08 18:26:11.1710,-1.145,0.071,-0.105,2.16,-2.51,-0.38
2022-12-08 18:26:11.1810,-1.109,0.01,-0.061,1.72,-1.65,-1.19
2022-12-08 18:26:11.1910,-1.074,-0.009,-0.062,1.31,-0.97,-1.4
2022-12-08 18:26:11.2010,-0.985,-0.002,-0.031,0.9,-0.7,-1.14
2022-12-08 18:26:11.2110,-0.898,-0.009,0.026,-0.01,-0.68,-1.21
2022-12-08 18:26:11.2210,-0.836,-0.044,-0.005,-0.89,-0.53,-1.58
2022-12-08 18:26:11.2310,-0.789,-0.091,-0.05,-1.52,-0.11,-1.12
2022-12-08 18:26:11.2410,-0.773,-0.145,-0.083,-2.01,0.42,-0.56
2022-12-08 18:26:11.2510,-0.757,-0.168,-0.108,-2.18,1.0,-0.12
2022-12-08 18:26:11.2620,-0.738,-0.169,-0.123,-2.35,1.28,0.21
2022-12-08 18:26:11.2710,-0.714,-0.154,-0.12,-2.55,1.33,0.46
2022-12-08 18:26:11.2820,-0.685,-0.126,-0.136,-2.78,1.22,0.51
2022-12-08 18:26:11.2910,-0.625,-0.066,-0.109,-3.07,0.96,0.72
2022-12-08 18:26:11.3020,-0.56,-0.001,-0.061,-3.67,0.38,0.5
2022-12-08 18:26:11.3120,-0.49,0.031,-0.038,-4.3,-0.26,0.04
2022-12-08 18:26:11.3220,-0.442,0.049,-0.031,-4.99,-0.57,-0.18
2022-12-08 18:26:11.3320,-0.457,0.054,-0.027,-5.46,-0.75,-0.27
2022-12-08 18:26:11.3420,-0.533,0.046,-0.022,-5.31,-0.8,-0.34
2022-12-08 18:26:11.3520,-0.56,0.044,-0.002,-4.57,-0.74,-0.42
2022-12-08 18:26:11.3620,-0.615,0.055,0.043,-4.29,-0.73,-0.67
2022-12-08 18:26:11.3720,-0.667,0.076,0.103,-3.75,-0.85,-1.15
2022-12-08 18:26:11.3820,-0.733,0.086,0.162,-3.24,-1.09,-1.78
2022-12-08 18:26:11.3920,-0.829,0.078,0.234,-2.59,-1.21,-2.39
2022-12-08 18:26:11.4020,-0.919,0.063,0.302,-1.64,-1.18,-3.11
2022-12-08 18:26:11.4120,-0.977,0.024,0.337,-0.76,-1.08,-3.77
2022-12-08 18:26:11.4220,-1.032,-0.032,0.296,-0.18,-0.74,-4.11
2022-12-08 18:26:11.4320,-1.121,-0.05,0.152,0.36,-0.25,-3.7
2022-12-08 18:26:11.4420,-1.172,-0.084,0.009,1.23,-0.13,-2.29
2022-12-08 18:26:11.4520,-1.21,-0.176,-0.091,1.74,0.15,-0.91
2022-12-08 18:26:11.4620,-1.284,-0.266,-0.136,2.11,1.03,0.02
2022-12-08 18:26:11.4720,-1.412,-0.265,-0.014,2.84,1.93,0.43
2022-12-08 18:26:11.4820,-1.501,-0.27,0.246,4.09,1.97,-0.7
2022-12-08 18:26:11.4920,-1.601,-0.304,0.481,4.95,2.08,-3.08
2022-12-08 18:26:11.5020,-1.708,-0.341,0.547,5.91,2.49,-5.14
2022-12-08 18:26:11.5120,-1.719,-0.261,0.45,6.94,2.98,-5.53
2022-12-08 18:26:11.5220,-1.652,-0.089,0.292,7.06,2.34,-4.32
2022-12-08 18:26:11.5320,-1.53,0.134,0.156,6.4,0.81,-2.53
2022-12-08 18:26:11.5420,-1.462,0.333,0.031,5.21,-1.22,-1.07
2022-12-08 18:26:11.5520,-1.419,0.312,-0.123,4.54,-3.05,0.16
2022-12-08 18:26:11.5620,-1.198,0.29,-0.244,4.12,-2.76,1.57
2022-12-08 18:26:11.5720,-0.937,0.376,-0.343,1.95,-2.5,2.59
2022-12-08 18:26:11.5820,-0.761,0.393,-0.471,-0.62,-3.35,3.38
2022-12-08 18:26:11.5920,-0.766,0.291,-0.562,-2.34,-3.54,4.52
2022-12-08 18:26:11.6020,-0.795,0.253,-0.583,-2.29,-2.57,5.38
2022-12-08 18:26:11.6120,-0.803,0.274,-0.522,-2.01,-2.26,5.65
2022-12-08 18:26:11.6220,-0.885,0.284,-0.425,-1.93,-2.54,5.16
2022-12-08 18:26:11.6320,-1.03,0.262,-0.345,-1.13,-2.74,4.3
2022-12-08 18:26:11.6420,-1.145,0.187,-0.29,0.29,-2.63,3.53
2022-12-08 18:26:11.6520,-1.18,0.065,-0.259,1.42,-2.01,2.94
2022-12-08 18:26:11.6620,-1.183,-0.048,-0.213,1.76,-0.93,2.53
2022-12-08 18:26:11.6720,-1.178,-0.152,-0.159,1.8,0.08,1.97
2022-12-08 18:26:11.6820,-1.17,-0.208,-0.073,1.75,1.01,1.35
2022-12-08 18:26:11.6920,-1.172,-0.24,0.028,1.68,1.47,0.44
2022-12-08 18:26:11.7030,-1.139,-0.267,0.101,1.71,1.69,-0.62
2022-12-08 18:26:11.7130,-1.043,-0.287,0.116,1.4,1.87,-1.43
2022-12-08 18:26:11.7230,-1.025,-0.26,0.073,0.46,2.01,-1.69
2022-12-08 18:26:11.7330,-0.967,-0.2,0.005,0.3,1.69,-1.39
2022-12-08 18:26:11.7430,-0.854,-0.139,-0.062,-0.26,1.06,-0.87
2022-12-08 18:26:11.7530,-0.783,-0.073,-0.104,-1.35,0.44,-0.34
2022-12-08 18:26:11.7630,-0.724,-0.01,-0.149,-2.03,-0.23,-0.05
2022-12-08 18:26:11.7730,-0.655,0.028,-0.179,-2.59,-0.85,0.25
2022-12-08 18:26:11.7830,-0.601,0.051,-0.19,-3.25,-1.23,0.4
2022-12-08 18:26:11.7930,-0.557,0.065,-0.192,-3.76,-1.46,0.36
2022-12-08 18:26:11.8030,-0.535,0.081,-0.187,-4.36,-1.75,0.03
2022-12-08 18:26:11.8150,-0.536,0.074,-0.171,-4.36,-1.75,0.03
2022-12-08 18:26:11.8250,-0.544,0.062,-0.158,-4.32,-1.67,-0.27
2022-12-08 18:26:11.8350,-0.564,0.055,-0.137,-4.21,-1.53,-0.55
2022-12-08 18:26:11.8450,-0.579,0.025,-0.116,-3.99,-1.44,-0.89
2022-12-08 18:26:11.8530,-0.601,-0.013,-0.098,-3.81,-1.11,-1.23
2022-12-08 18:26:11.8630,-0.63,-0.048,-0.074,-3.25,-0.32,-1.89
2022-12-08 18:26:11.8750,-0.652,-0.066,-0.058,-3.25,-0.32,-1.89
2022-12-08 18:26:11.8830,-0.69,-0.078,-0.055,-3.01,-0.1,-2.16
2022-12-08 18:26:11.8930,-0.742,-0.101,-0.063,-2.6,0.06,-2.29
2022-12-08 18:26:11.9030,-0.797,-0.131,-0.068,-2.07,0.33,-2.31
2022-12-08 18:26:11.9130,-0.84,-0.166,-0.07,-1.5,0.67,-2.35
2022-12-08 18:26:11.9230,-0.892,-0.208,-0.092,-1.06,1.06,-2.41
2022-12-08 18:26:11.9330,-0.938,-0.236,-0.132,-0.52,1.52,-2.28
2022-12-08 18:26:11.9430,-0.971,-0.241,-0.188,-0.05,1.84,-1.95
2022-12-08 18:26:11.9530,-1.024,-0.221,-0.253,0.28,1.93,-1.44
2022-12-08 18:26:11.9630,-1.084,-0.201,-0.292,0.81,1.77,-0.82
2022-12-08 18:26:11.9730,-1.151,-0.204,-0.287,1.41,1.61,-0.45
2022-12-08 18:26:11.9830,-1.229,-0.217,-0.265,2.06,1.67,-0.5
2022-12-08 18:26:11.9930,-1.305,-0.241,-0.24,2.82,1.82,-0.72
2022-12-08 18:26:12.0030,-1.353,-0.258,-0.182,3.57,2.05,-0.95
2022-12-08 18:26:12.0130,-1.368,-0.263,-0.145,4.03,2.21,-1.5
2022-12-08 18:26:12.0230,-1.385,-0.267,-0.216,4.17,2.25,-1.84
2022-12-08 18:26:12.0330,-1.406,-0.262,-0.319,4.32,2.26,-1.12
2022-12-08 18:26:12.0430,-1.414,-0.253,-0.366,4.51,2.18,-0.05
2022-12-08 18:26:12.0530,-1.38,-0.23,-0.364,4.58,2.04,0.47
2022-12-08 18:26:12.0630,-1.33,-0.196,-0.383,4.22,1.78,0.53
2022-12-08 18:26:12.0730,-1.272,-0.148,-0.425,3.7,1.41,0.81
2022-12-08 18:26:12.0830,-1.183,-0.094,-0.458,3.1,0.92,1.34
2022-12-08 18:26:12.0930,-1.092,-0.043,-0.5,2.19,0.38,1.78
2022-12-08 18:26:12.1040,-1.021,-0.016,-0.563,1.26,-0.12,2.32
2022-12-08 18:26:12.1140,-0.953,0.011,-0.626,0.53,-0.38,3.05
2022-12-08 18:26:12.1230,-0.897,0.033,-0.701,-0.16,-0.65,3.75
2022-12-08 18:26:12.1340,-0.869,0.053,-0.784,-0.72,-0.88,4.57
2022-12-08 18:26:12.1440,-0.868,0.083,-0.825,-1.01,-1.09,5.43
2022-12-08 18:26:12.1540,-0.877,0.139,-0.8,-1.03,-1.4,5.86
2022-12-08 18:26:12.1640,-0.907,0.199,-0.689,-0.93,-1.98,5.62
2022-12-08 18:26:12.1740,-0.964,0.247,-0.53,-0.64,-2.59,4.55
2022-12-08 18:26:12.1840,-1.039,0.281,-0.377,-0.09,-3.08,3.01
2022-12-08 18:26:12.1940,-1.112,0.298,-0.249,0.64,-3.42,1.54
2022-12-08 18:26:12.2040,-1.175,0.26,-0.172,1.35,-3.58,0.32
2022-12-08 18:26:12.2140,-1.197,0.192,-0.118,1.95,-3.2,-0.39
2022-12-08 18:26:12.2240,-1.192,0.127,-0.068,2.15,-2.51,-0.84
2022-12-08 18:26:12.2340,-1.144,0.068,-0.019,2.08,-1.84,-1.22
2022-12-08 18:26:12.2440,-1.06,0.035,-0.004,1.58,-1.24,-1.57
2022-12-08 18:26:12.2540,-0.98,0.001,-0.025,0.73,-0.88,-1.59
2022-12-08 18:26:12.2640,-0.913,-0.029,-0.064,-0.08,-0.52,-1.24
2022-12-08 18:26:12.2740,-0.865,-0.074,-0.113,-0.75,-0.19,-0.73
2022-12-08 18:26:12.2840,-0.832,-0.109,-0.163,-1.24,0.28,-0.13
2022-12-08 18:26:12.2940,-0.815,-0.141,-0.211,-1.57,0.65,0.45
2022-12-08 18:26:12.3040,-0.812,-0.158,-0.237,-1.75,0.99,1.01
2022-12-08 18:26:12.3140,-0.803,-0.166,-0.231,-1.8,1.17,1.35
2022-12-08 18:26:12.3240,-0.779,-0.165,-0.251,-1.9,1.26,1.37
2022-12-08 18:26:12.3340,-0.738,-0.13,-0.212,-2.14,1.26,1.64
2022-12-08 18:26:12.3440,-0.682,-0.074,-0.148,-2.54,0.92,1.33
2022-12-08 18:26:12.3540,-0.625,-0.016,-0.112,-3.09,0.36,0.76
2022-12-08 18:26:12.3640,-0.584,0.03,-0.072,-3.66,-0.22,0.45
2022-12-08 18:26:12.3740,-0.551,0.059,-0.042,-4.06,-0.69,0.11
2022-12-08 18:26:12.3840,-0.516,0.086,0.001,-4.38,-1.0,-0.16
2022-12-08 18:26:12.3940,-0.512,0.102,0.048,-4.73,-1.29,-0.58
2022-12-08 18:26:12.4040,-0.536,0.1,0.084,-4.76,-1.47,-1.05
2022-12-08 18:26:12.4140,-0.572,0.066,0.092,-4.53,-1.49,-1.45
2022-12-08 18:26:12.4240,-0.614,0.029,0.093,-4.17,-1.19,-1.57
2022-12-08 18:26:12.4340,-0.664,0.016,0.111,-3.75,-0.87,-1.64
2022-12-08 18:26:12.4440,-0.718,0.006,0.154,-3.25,-0.79,-1.88
2022-12-08 18:26:12.4540,-0.758,-0.013,0.201,-2.71,-0.75,-2.35
2022-12-08 18:26:12.4640,-0.789,-0.033,0.224,-2.31,-0.64,-2.82
2022-12-08 18:26:12.4740,-0.846,-0.068,0.195,-2.0,-0.51,-3.05
2022-12-08 18:26:12.4840,-0.941,-0.098,0.109,-1.44,-0.24,-2.77
2022-12-08 18:26:12.4940,-1.071,-0.162,0.008,-0.5,0.0,-1.92
2022-12-08 18:26:12.5040,-1.178,-0.263,-0.076,0.78,0.58,-0.96
2022-12-08 18:26:12.5140,-1.257,-0.339,-0.09,1.84,1.54,-0.17
2022-12-08 18:26:12.5240,-1.36,-0.361,0.05,2.62,2.28,-0.03
2022-12-08 18:26:12.5350,-1.465,-0.312,0.302,3.62,2.51,-1.35
2022-12-08 18:26:12.5450,-1.475,-0.346,0.461,4.64,2.04,-3.69
2022-12-08 18:26:12.5550,-1.498,-0.411,0.466,4.72,2.41,-5.04
2022-12-08 18:26:12.5650,-1.562,-0.386,0.394,4.93,3.11,-4.85
2022-12-08 18:26:12.5740,-1.583,-0.21,0.232,5.55,2.93,-3.92
2022-12-08 18:26:12.5850,-1.525,-0.018,0.035,5.75,1.27,-2.17
2022-12-08 18:26:12.5950,-1.39,0.155,-0.095,5.18,-0.55,-0.14
2022-12-08 18:26:12.6050,-1.296,0.249,-0.198,3.85,-2.17,1.12
2022-12-08 18:26:12.6150,-1.254,0.256,-0.294,2.91,-3.0,2.03
2022-12-08 18:26:12.6250,-1.158,0.28,-0.344,2.5,-2.98,2.84
2022-12-08 18:26:12.6350,-1.033,0.311,-0.331,1.56,-3.13,3.21
2022-12-08 18:26:12.6450,-0.871,0.326,-0.303,0.33,-3.38,3.03
2022-12-08 18:26:12.6570,-0.822,0.317,-0.285,-1.27,-3.51,2.74
2022-12-08 18:26:12.6650,-0.846,0.229,-0.283,-1.74,-3.42,2.58
2022-12-08 18:26:12.6750,-0.877,0.145,-0.282,-1.51,-2.58,2.58
2022-12-08 18:26:12.6850,-0.962,0.108,-0.281,-1.2,-1.79,2.56
2022-12-08 18:26:12.6950,-1.088,0.075,-0.301,-0.37,-1.47,2.51
2022-12-08 18:26:12.7050,-1.173,-0.008,-0.331,1.71,-0.38,2.76
2022-12-08 18:26:12.7170,-1.176,-0.072,-0.316,1.71,-0.38,2.76
2022-12-08 18:26:12.7250,-1.192,-0.071,-0.26,1.76,0.25,2.46
2022-12-08 18:26:12.7350,-1.209,-0.064,-0.191,1.92,0.22,1.78
2022-12-08 18:26:12.7450,-1.182,-0.08,-0.128,2.09,0.13,1.01
2022-12-08 18:26:12.7550,-1.126,-0.093,-0.08,1.84,0.26,0.32
2022-12-08 18:26:12.7650,-1.066,-0.09,-0.048,1.3,0.36,-0.23
2022-12-08 18:26:12.7770,-0.981,-0.099,-0.051,0.72,0.3,-0.64
2022-12-08 18:26:12.7850,-0.911,-0.083,-0.073,-0.1,0.36,-0.72
2022-12-08 18:26:12.7950,-0.858,-0.039,-0.115,-0.77,0.19,-0.63
2022-12-08 18:26:12.8050,-0.793,-0.015,-0.17,-1.27,-0.26,-0.34
2022-12-08 18:26:12.8150,-0.728,0.006,-0.198,-1.88,-0.5,0.06
2022-12-08 18:26:12.8250,-0.673,0.02,-0.216,-2.5,-0.71,0.2
2022-12-08 18:26:12.8350,-0.634,0.03,-0.227,-3.0,-0.86,0.22
2022-12-08 18:26:12.8450,-0.608,0.039,-0.228,-3.36,-0.97,0.19
2022-12-08 18:26:12.8550,-0.591,0.045,-0.216,-3.58,-1.07,0.06
2022-12-08 18:26:12.8650,-0.593,0.046,-0.213,-3.72,-1.13,-0.19
2022-12-08 18:26:12.8750,-0.608,0.037,-0.212,-3.67,-1.15,-0.36
2022-12-08 18:26:12.8850,-0.632,0.02,-0.206,-3.48,-1.06,-0.49
2022-12-08 18:26:12.8950,-0.662,0.001,-0.189,-3.21,-0.9,-0.66
2022-12-08 18:26:12.9050,-0.703,-0.032,-0.154,-2.89,-0.69,-0.93
2022-12-08 18:26:12.9150,-0.745,-0.069,-0.119,-2.47,-0.35,-1.36
2022-12-08 18:26:12.9250,-0.792,-0.107,-0.111,-2.03,0.03,-1.78
2022-12-08 18:26:12.9350,-0.834,-0.131,-0.116,-1.55,0.44,-1.94
2022-12-08 18:26:12.9450,-0.856,-0.137,-0.12,-1.12,0.72,-1.95
2022-12-08 18:26:12.9560,-0.862,-0.15,-0.131,-0.89,0.82,-1.97
2022-12-08 18:26:12.9650,-0.88,-0.166,-0.135,-0.81,0.98,-1.92
2022-12-08 18:26:12.9750,-0.903,-0.179,-0.124,-0.62,1.18,-1.93
2022-12-08 18:26:12.9850,-0.93,-0.195,-0.112,-0.38,1.35,-2.08
2022-12-08 18:26:12.9960,-0.961,-0.201,-0.12,-0.1,1.54,-2.23
2022-12-08 18:26:13.0060,-0.991,-0.185,-0.152,0.22,1.63,-2.19
2022-12-08 18:26:13.0160,-1.02,-0.156,-0.2,0.51,1.49,-1.9
2022-12-08 18:26:13.0260,-1.058,-0.13,-0.247,0.81,1.23,-1.46
2022-12-08 18:26:13.0360,-1.122,-0.123,-0.271,1.18,1.0,-1.0
2022-12-08 18:26:13.0460,-1.201,-0.132,-0.286,1.81,0.95,-0.77
2022-12-08 18:26:13.0560,-1.262,-0.144,-0.272,2.59,1.05,-0.62
2022-12-08 18:26:13.0660,-1.29,-0.138,-0.227,3.18,1.18,-0.77
2022-12-08 18:26:13.0760,-1.301,-0.116,-0.132,3.46,1.11,-1.2
2022-12-08 18:26:13.0860,-1.306,-0.106,-0.021,3.56,0.9,-2.11
2022-12-08 18:26:13.0960,-1.323,-0.121,0.004,3.6,0.8,-3.16
2022-12-08 18:26:13.1060,-1.337,-0.137,-0.098,3.74,0.94,-3.36
2022-12-08 18:26:13.1160,-1.326,-0.111,-0.214,3.86,1.08,-2.3
2022-12-08 18:26:13.1260,-1.276,-0.057,-0.282,3.73,0.81,-1.1
2022-12-08 18:26:13.1360,-1.175,0.012,-0.327,3.21,0.28,-0.35
2022-12-08 18:26:13.1460,-1.09,0.076,-0.389,2.19,-0.4,0.2
2022-12-08 18:26:13.1560,-1.031,0.11,-0.463,1.31,-1.01,0.94
2022-12-08 18:26:13.1660,-1.004,0.112,-0.542,0.7,-1.33,1.79
2022-12-08 18:26:13.1760,-0.997,0.093,-0.639,0.39,-1.34,2.69
2022-12-08 18:26:13.1860,-0.99,0.074,-0.771,0.29,-1.14,3.75
2022-12-08 18:26:13.1960,-0.967,0.09,-0.894,0.21,-0.95,5.13
2022-12-08 18:26:13.2060,-0.947,0.124,-0.947,-0.04,-1.11,6.4
2022-12-08 18:26:13.2160,-0.946,0.159,-0.943,-0.25,-1.44,6.95
2022-12-08 18:26:13.2260,-0.982,0.199,-0.88,-0.26,-1.77,6.95
2022-12-08 18:26:13.2360,-1.047,0.245,-0.743,0.09,-2.16,6.36
2022-12-08 18:26:13.2460,-1.124,0.258,-0.568,0.71,-2.6,5.07
2022-12-08 18:26:13.2560,-1.213,0.233,-0.392,1.46,-2.72,3.4
2022-12-08 18:26:13.2660,-1.266,0.18,-0.251,2.3,-2.46,1.77
2022-12-08 18:26:13.2760,-1.316,0.129,-0.095,2.8,-1.92,0.54
2022-12-08 18:26:13.2860,-1.294,0.128,0.118,3.25,-1.37,-0.8
2022-12-08 18:26:13.2960,-1.206,0.128,0.267,3.0,-1.31,-2.69
2022-12-08 18:26:13.3060,-1.098,0.092,0.241,2.11,-1.22,-3.97
2022-12-08 18:26:13.3160,-0.993,-0.009,0.09,1.03,-0.77,-3.57
2022-12-08 18:26:13.3260,-0.942,-0.085,-0.071,-0.02,0.32,-1.96
2022-12-08 18:26:13.3360,-0.919,-0.166,-0.214,-0.52,1.18,-0.28
2022-12-08 18:26:13.3460,-0.946,-0.221,-0.325,-0.75,2.06,1.21
2022-12-08 18:26:13.3570,-0.963,-0.214,-0.419,-0.49,2.69,2.37
2022-12-08 18:26:13.3660,-0.91,-0.151,-0.474,-0.32,2.7,3.36
2022-12-08 18:26:13.3760,-0.834,-0.094,-0.434,-0.84,2.11,3.95
2022-12-08 18:26:13.3870,-0.734,-0.064,-0.363,-1.59,1.58,3.61
2022-12-08 18:26:13.3960,-0.593,-0.0,-0.271,-2.57,1.29,2.95
2022-12-08 18:26:13.4070,-0.463,0.068,-0.156,-3.96,0.67,2.08
2022-12-08 18:26:13.4170,-0.362,0.125,-0.071,-5.23,0.01,0.99
2022-12-08 18:26:13.4270,-0.29,0.173,0.003,-6.22,-0.55,0.16
2022-12-08 18:26:13.4370,-0.262,0.197,0.062,-6.93,-1.01,-0.58
2022-12-08 18:26:13.4470,-0.266,0.189,0.085,-7.21,-1.23,-1.18
2022-12-08 18:26:13.4570,-0.342,0.165,0.09,-7.16,-1.12,-1.44
2022-12-08 18:26:13.4670,-0.459,0.136,0.085,-6.41,-0.86,-1.52
2022-12-08 18:26:13.4770,-0.504,0.122,0.077,-5.26,-0.56,-1.5
2022-12-08 18:26:13.4870,-0.6,0.139,0.087,-4.81,-0.4,-1.44
2022-12-08 18:26:13.4970,-0.702,0.15,0.118,-3.87,-0.55,-1.53
2022-12-08 18:26:13.5070,-0.774,0.14,0.177,-2.87,-0.65,-1.82
2022-12-08 18:26:13.5170,-0.859,0.1,0.265,-2.17,-0.54,-2.34
2022-12-08 18:26:13.5270,-0.975,0.043,0.372,-1.33,-0.14,-3.13
2022-12-08 18:26:13.5370,-1.123,-0.002,0.427,-0.2,0.43,-4.08
2022-12-08 18:26:13.5470,-1.218,-0.07,0.358,1.25,0.86,-4.54
2022-12-08 18:26:13.5570,-1.316,-0.131,0.212,2.17,1.51,-3.81
2022-12-08 18:26:13.5670,-1.433,-0.182,0.059,3.14,2.1,-2.34
2022-12-08 18:26:13.5770,-1.553,-0.224,-0.01,4.28,2.59,-0.85
2022-12-08 18:26:13.5870,-1.577,-0.243,0.043,5.45,2.99,-0.22
2022-12-08 18:26:13.5970,-1.43,-0.163,0.197,5.69,3.15,-0.76
2022-12-08 18:26:13.6070,-1.319,-0.016,0.291,4.24,2.34,-2.27
2022-12-08 18:26:13.6170,-1.315,0.013,0.211,3.16,0.9,-3.16
2022-12-08 18:26:13.6270,-1.389,0.024,0.127,3.12,0.62,-2.32
2022-12-08 18:26:13.6370,-1.407,0.071,0.099,3.84,0.56,-1.44
2022-12-08 18:26:13.6470,-1.357,0.122,0.099,4.02,0.14,-1.1
2022-12-08 18:26:13.6570,-1.273,0.196,0.13,3.54,-0.31,-1.03
2022-12-08 18:26:13.6670,-1.178,0.278,0.077,2.72,-0.99,-1.28
2022-12-08 18:26:13.6770,-1.094,0.334,-0.032,1.79,-1.76,-0.75
2022-12-08 18:26:13.6870,-1.098,0.353,-0.111,0.97,-2.27,0.28
2022-12-08 18:26:13.6970,-1.145,0.368,-0.127,1.02,-2.42,1.02
2022-12-08 18:26:13.7070,-1.109,0.386,-0.078,1.48,-2.53,1.17
2022-12-08 18:26:13.7170,-0.983,0.386,0.03,1.12,-2.67,0.73
2022-12-08 18:26:13.7270,-0.829,0.377,0.121,-0.1,-2.66,-0.26
2022-12-08 18:26:13.7370,-0.813,0.346,0.063,-1.62,-2.58,-1.1
2022-12-08 18:26:13.7470,-0.845,0.313,-0.062,-1.77,-2.29,-0.51
2022-12-08 18:26:13.7570,-0.874,0.27,-0.144,-1.46,-2.0,0.71
2022-12-08 18:26:13.7670,-0.982,0.182,-0.215,-1.18,-1.61,1.5
2022-12-08 18:26:13.7770,-1.094,0.086,-0.271,-0.13,-0.77,2.17
2022-12-08 18:26:13.7870,-1.103,0.071,-0.292,0.97,0.14,2.67
2022-12-08 18:26:13.7970,-1.039,0.12,-0.282,1.06,0.26,2.82
2022-12-08 18:26:13.8080,-0.987,0.139,-0.257,0.42,-0.27,2.67
2022-12-08 18:26:13.8180,-0.95,0.135,-0.251,-0.09,-0.5,2.38
2022-12-08 18:26:13.8270,-0.974,0.135,-0.249,-0.46,-0.51,2.29
2022-12-08 18:26:13.8380,-1.041,0.137,-0.246,-0.23,-0.55,2.25
2022-12-08 18:26:13.8480,-1.109,0.14,-0.244,0.43,-0.61,2.2
2022-12-08 18:26:13.8580,-1.154,0.154,-0.225,1.09,-0.68,2.16
2022-12-08 18:26:13.8680,-1.161,0.114,-0.181,1.53,-0.89,1.92
2022-12-08 18:26:13.8780,-1.131,0.03,-0.133,1.59,-0.57,1.42
2022-12-08 18:26:13.8880,-1.061,-0.05,-0.098,1.3,0.16,0.85
2022-12-08 18:26:13.8980,-0.976,-0.119,-0.06,0.61,0.86,0.4
2022-12-08 18:26:13.9080,-0.902,-0.179,-0.025,-0.21,1.45,-0.09
2022-12-08 18:26:13.9180,-0.866,-0.187,0.007,-0.93,1.97,-0.56
2022-12-08 18:26:13.9280,-0.821,-0.134,0.011,-1.27,1.98,-1.0
2022-12-08 18:26:13.9380,-0.79,-0.06,-0.005,-1.71,1.43,-1.17
2022-12-08 18:26:13.9480,-0.736,-0.007,-0.024,-1.99,0.67,-1.14
2022-12-08 18:26:13.9580,-0.669,0.019,-0.042,-2.51,0.11,-1.07
2022-12-08 18:26:13.9680,-0.613,0.033,-0.058,-3.15,-0.17,-1.01
2022-12-08 18:26:13.9780,-0.582,0.036,-0.076,-3.68,-0.34,-0.97
2022-12-08 18:26:13.9880,-0.55,0.04,-0.085,-3.96,-0.39,-0.92
2022-12-08 18:26:13.9980,-0.545,0.032,-0.089,-4.26,-0.44,-0.93
2022-12-08 18:26:14.0080,-0.561,0.012,-0.096,-4.29,-0.38,-1.0
2022-12-08 18:26:14.0180,-0.601,-0.019,-0.102,-4.11,-0.19,-1.03
2022-12-08 18:26:14.0280,-0.646,-0.05,-0.116,-3.7,0.12,-1.07
2022-12-08 18:26:14.0380,-0.684,-0.083,-0.128,-3.24,0.44,-1.03
2022-12-08 18:26:14.0480,-0.717,-0.12,-0.137,-2.84,0.76,-1.0
2022-12-08 18:26:14.0580,-0.746,-0.15,-0.135,-2.5,1.14,-1.0
2022-12-08 18:26:14.0680,-0.781,-0.167,-0.124,-2.19,1.45,-1.1
2022-12-08 18:26:14.0780,-0.819,-0.176,-0.107,-1.83,1.63,-1.28
2022-12-08 18:26:14.0880,-0.863,-0.178,-0.09,-1.44,1.73,-1.51
2022-12-08 18:26:14.0980,-0.907,-0.181,-0.076,-0.99,1.77,-1.75
2022-12-08 18:26:14.1080,-0.937,-0.19,-0.061,-0.54,1.82,-1.94
2022-12-08 18:26:14.1180,-0.959,-0.189,-0.036,-0.23,1.94,-2.15
2022-12-08 18:26:14.1280,-0.952,-0.168,-0.015,0.0,1.95,-2.45
2022-12-08 18:26:14.1380,-0.944,-0.151,-0.033,-0.05,1.76,-2.71
2022-12-08 18:26:14.1480,-0.95,-0.147,-0.111,-0.12,1.61,-2.58
2022-12-08 18:26:14.1580,-0.985,-0.146,-0.22,-0.05,1.57,-1.85
2022-12-08 18:26:14.1680,-1.044,-0.142,-0.334,0.3,1.57,-0.79
2022-12-08 18:26:14.1780,-1.099,-0.136,-0.412,0.89,1.53,0.31
2022-12-08 18:26:14.1880,-1.142,-0.134,-0.419,1.43,1.45,1.08
2022-12-08 18:26:14.1980,-1.194,-0.148,-0.345,1.85,1.41,1.14
2022-12-08 18:26:14.2080,-1.253,-0.181,-0.211,2.37,1.53,0.4
2022-12-08 18:26:14.2190,-1.3,-0.192,-0.103,2.94,1.82,-0.93
2022-12-08 18:26:14.2280,-1.359,-0.192,-0.077,3.41,1.89,-1.99
2022-12-08 18:26:14.2390,-1.393,-0.2,-0.117,3.98,1.84,-2.23
2022-12-08 18:26:14.2490,-1.378,-0.187,-0.22,4.3,1.87,-1.8
2022-12-08 18:26:14.2590,-1.293,-0.145,-0.354,4.14,1.67,-0.73
2022-12-08 18:26:14.2690,-1.18,-0.072,-0.451,3.28,1.2,0.67
2022-12-08 18:26:14.2780,-1.074,-0.001,-0.491,2.14,0.44,1.73
2022-12-08 18:26:14.2890,-0.988,0.038,-0.509,1.07,-0.3,2.23
2022-12-08 18:26:14.2990,-0.955,0.058,-0.531,0.2,-0.7,2.51
2022-12-08 18:26:14.3090,-0.936,0.078,-0.546,-0.14,-0.92,2.82
2022-12-08 18:26:14.3190,-0.936,0.121,-0.568,-0.35,-1.14,3.05
2022-12-08 18:26:14.3290,-0.965,0.192,-0.606,-0.37,-1.57,3.33
2022-12-08 18:26:14.3390,-1.032,0.286,-0.671,-0.09,-2.27,3.76
2022-12-08 18:26:14.3490,-1.121,0.375,-0.763,0.56,-3.18,4.41
2022-12-08 18:26:14.3590,-1.191,0.442,-0.833,1.43,-4.06,5.3
2022-12-08 18:26:14.3690,-1.25,0.5,-0.796,2.12,-4.71,5.96
2022-12-08 18:26:14.3790,-1.294,0.535,-0.676,2.71,-5.27,5.59
2022-12-08 18:26:14.3890,-1.314,0.479,-0.515,3.13,-5.61,4.44
2022-12-08 18:26:14.3990,-1.311,0.35,-0.279,3.31,-5.07,2.92
2022-12-08 18:26:14.4090,-1.268,0.214,-0.028,3.26,-3.8,0.74
2022-12-08 18:26:14.4190,-1.217,0.139,0.193,2.8,-2.45,-1.54
2022-12-08 18:26:14.4290,-1.121,0.117,0.339,2.26,-1.69,-3.5
2022-12-08 18:26:14.4390,-0.955,0.045,0.318,1.29,-1.43,-4.7
2022-12-08 18:26:14.4490,-0.906,-0.01,0.242,-0.38,-0.67,-4.29
2022-12-08 18:26:14.4590,-0.861,-0.041,0.139,-0.88,-0.07,-3.36
2022-12-08 18:26:14.4690,-0.81,-0.067,0.013,-1.34,0.3,-2.22
2022-12-08 18:26:14.4790,-0.766,-0.076,-0.141,-1.85,0.62,-0.88
2022-12-08 18:26:14.4890,-0.75,-0.094,-0.275,-2.28,0.75,0.71
2022-12-08 18:26:14.4990,-0.767,-0.13,-0.368,-2.43,0.96,2.07
2022-12-08 18:26:14.5090,-0.747,-0.152,-0.398,-2.28,1.33,3.0
2022-12-08 18:26:14.5190,-0.668,-0.143,-0.35,-2.47,1.55,3.32
2022-12-08 18:26:14.5290,-0.562,-0.081,-0.226,-3.25,1.45,2.88
2022-12-08 18:26:14.5390,-0.479,-0.013,-0.093,-4.29,0.84,1.7
2022-12-08 18:26:14.5490,-0.435,0.032,0.002,-5.1,0.17,0.4
2022-12-08 18:26:14.5590,-0.427,0.068,0.065,-5.53,-0.27,-0.53
2022-12-08 18:26:14.5690,-0.495,0.083,0.094,-5.61,-0.63,-1.18
2022-12-08 18:26:14.5790,-0.564,0.077,0.097,-4.94,-0.77,-1.49
2022-12-08 18:26:14.5890,-0.61,0.088,0.111,-4.26,-0.71,-1.58
2022-12-08 18:26:14.5990,-0.667,0.101,0.141,-3.81,-0.82,-1.77
2022-12-08 18:26:14.6090,-0.722,0.099,0.182,-3.24,-0.96,-2.11
2022-12-08 18:26:14.6190,-0.779,0.088,0.241,-2.7,-0.97,-2.55
2022-12-08 18:26:14.6290,-0.837,0.041,0.277,-2.14,-0.9,-3.15
2022-12-08 18:26:14.6390,-0.892,-0.044,0.248,-1.57,-0.49,-3.5
2022-12-08 18:26:14.6490,-0.952,-0.111,0.145,-1.03,0.28,-3.2
2022-12-08 18:26:14.6590,-1.046,-0.163,0.006,-0.45,0.88,-2.18
2022-12-08 18:26:14.6690,-1.17,-0.198,-0.109,0.48,1.35,-0.83
2022-12-08 18:26:14.6800,-1.256,-0.227,-0.17,1.7,1.67,0.25
2022-12-08 18:26:14.6900,-1.388,-0.202,-0.078,2.54,1.96,0.8
2022-12-08 18:26:14.7000,-1.514,-0.235,0.2,3.83,1.73,-0.07
2022-12-08 18:26:14.7100,-1.552,-0.298,0.601,5.06,2.1,-2.68
2022-12-08 18:26:14.7200,-1.455,-0.283,0.842,5.43,2.72,-6.42
2022-12-08 18:26:14.7300,-1.421,-0.295,0.755,4.47,2.55,-8.55
2022-12-08 18:26:14.7400,-1.419,-0.293,0.416,4.13,2.66,-7.43
2022-12-08 18:26:14.7500,-1.378,-0.095,0.096,4.11,2.64,-3.86
2022-12-08 18:26:14.7600,-1.38,0.092,-0.137,3.71,0.68,-0.57
2022-12-08 18:26:14.7700,-1.298,0.151,-0.276,3.74,-1.16,1.75
2022-12-08 18:26:14.7800,-1.064,0.216,-0.244,2.93,-1.74,3.08
2022-12-08 18:26:14.7900,-0.943,0.183,-0.192,0.63,-2.36,2.68
2022-12-08 18:26:14.8000,-0.962,0.129,-0.214,-0.56,-2.0,2.05
2022-12-08 18:26:14.8100,-0.987,0.161,-0.268,-0.37,-1.41,2.12
2022-12-08 18:26:14.8200,-0.991,0.238,-0.319,-0.13,-1.66,2.52
2022-12-08 18:26:14.8300,-1.008,0.33,-0.348,-0.09,-2.34,2.91
2022-12-08 18:26:14.8400,-1.035,0.343,-0.314,0.08,-3.17,3.16
2022-12-08 18:26:14.8500,-1.085,0.302,-0.296,0.34,-3.27,2.83
2022-12-08 18:26:14.8600,-1.141,0.212,-0.348,0.83,-2.87,2.67
2022-12-08 18:26:14.8700,-1.212,0.129,-0.395,1.38,-2.03,3.17
2022-12-08 18:26:14.8800,-1.291,0.061,-0.454,2.08,-1.27,3.58
2022-12-08 18:26:14.8900,-1.312,-0.02,-0.5,2.86,-0.67,4.06
2022-12-08 18:26:14.9000,-1.243,-0.102,-0.465,3.07,0.05,4.41
2022-12-08 18:26:14.9100,-1.235,-0.134,-0.345,2.4,0.81,3.99
2022-12-08 18:26:14.9200,-1.276,-0.131,-0.193,2.32,1.07,2.77
2022-12-08 18:26:14.9300,-1.245,-0.133,-0.068,2.73,0.97,1.26
2022-12-08 18:26:14.9400,-1.129,-0.142,0.043,2.43,0.92,0.0
2022-12-08 18:26:14.9500,-1.007,-0.146,0.083,1.3,0.95,-1.13
2022-12-08 18:26:14.9600,-0.907,-0.132,0.075,0.11,0.92,-1.62
2022-12-08 18:26:14.9700,-0.837,-0.098,0.01,-0.85,0.74,-1.66
2022-12-08 18:26:14.9800,-0.785,-0.076,-0.071,-1.53,0.38,-1.15
2022-12-08 18:26:14.9900,-0.736,-0.048,-0.107,-2.03,0.14,-0.5
2022-12-08 18:26:15.0000,-0.673,-0.023,-0.121,-2.49,-0.15,-0.29
2022-12-08 18:26:15.0100,-0.605,0.01,-0.131,-3.09,-0.41,-0.29
2022-12-08 18:26:15.0200,-0.564,0.048,-0.153,-3.72,-0.74,-0.34
2022-12-08 18:26:15.0300,-0.546,0.073,-0.174,-4.1,-1.12,-0.27
2022-12-08 18:26:15.0400,-0.537,0.084,-0.185,-4.25,-1.36,-0.21
2022-12-08 18:26:15.0500,-0.54,0.096,-0.193,-4.3,-1.47,-0.25
2022-12-08 18:26:15.0610,-0.558,0.102,-0.195,-4.25,-1.58,-0.31
2022-12-08 18:26:15.0700,-0.573,0.087,-0.196,-4.04,-1.63,-0.43
2022-12-08 18:26:15.0810,-0.611,0.069,-0.18,-3.86,-1.48,-0.56
2022-12-08 18:26:15.0910,-0.653,0.039,-0.155,-3.45,-1.28,-0.84
2022-12-08 18:26:15.1000,-0.698,0.004,-0.127,-3.01,-0.96,-1.21
2022-12-08 18:26:15.1110,-0.739,-0.035,-0.107,-2.53,-0.6,-1.6
2022-12-08 18:26:15.1210,-0.77,-0.073,-0.109,-2.1,-0.19,-1.89
2022-12-08 18:26:15.1310,-0.792,-0.1,-0.118,-1.77,0.21,-1.96
2022-12-08 18:26:15.1410,-0.819,-0.119,-0.133,-1.54,0.52,-1.94
2022-12-08 18:26:15.1510,-0.847,-0.145,-0.158,-1.25,0.75,-1.86
2022-12-08 18:26:15.1610,-0.88,-0.161,-0.169,-0.95,1.05,-1.68
2022-12-08 18:26:15.1710,-0.913,-0.154,-0.167,-0.61,1.25,-1.63
2022-12-08 18:26:15.1810,-0.95,-0.14,-0.158,-0.27,1.23,-1.69
2022-12-08 18:26:15.1910,-1.009,-0.132,-0.148,0.1,1.14,-1.82
2022-12-08 18:26:15.2010,-1.093,-0.145,-0.163,0.69,1.1,-1.93
2022-12-08 18:26:15.2110,-1.2,-0.188,-0.192,1.51,1.28,-1.79
2022-12-08 18:26:15.2210,-1.303,-0.233,-0.231,2.56,1.72,-1.49
2022-12-08 18:26:15.2310,-1.372,-0.26,-0.282,3.56,2.18,-1.09
2022-12-08 18:26:15.2410,-1.399,-0.274,-0.326,4.22,2.45,-0.56
2022-12-08 18:26:15.2510,-1.407,-0.281,-0.363,4.48,2.58,-0.12
2022-12-08 18:26:15.2610,-1.41,-0.284,-0.408,4.56,2.63,0.27
2022-12-08 18:26:15.2710,-1.408,-0.282,-0.436,4.58,2.64,0.73
2022-12-08 18:26:15.2810,-1.387,-0.261,-0.422,4.54,2.6,1.03
2022-12-08 18:26:15.2910,-1.347,-0.235,-0.396,4.33,2.36,0.93
2022-12-08 18:26:15.3010,-1.3,-0.21,-0.38,3.92,2.08,0.72
2022-12-08 18:26:15.3110,-1.243,-0.183,-0.375,3.44,1.81,0.63
2022-12-08 18:26:15.3210,-1.175,-0.155,-0.39,2.85,1.52,0.66
2022-12-08 18:26:15.3310,-1.089,-0.117,-0.429,2.16,1.24,0.9
2022-12-08 18:26:15.3410,-0.993,-0.059,-0.48,1.29,0.85,1.37
2022-12-08 18:26:15.3510,-0.903,-0.004,-0.506,0.32,0.28,1.97
2022-12-08 18:26:15.3610,-0.825,0.05,-0.511,-0.58,-0.25,2.3
2022-12-08 18:26:15.3710,-0.781,0.096,-0.523,-1.37,-0.78,2.43
2022-12-08 18:26:15.3810,-0.751,0.115,-0.555,-1.82,-1.23,2.62
2022-12-08 18:26:15.3910,-0.762,0.171,-0.568,-2.13,-1.42,2.98
2022-12-08 18:26:15.4010,-0.793,0.222,-0.566,-2.04,-1.98,3.15
2022-12-08 18:26:15.4110,-0.853,0.267,-0.534,-1.73,-2.48,3.16
2022-12-08 18:26:15.4210,-0.927,0.304,-0.475,-1.16,-2.93,2.88
2022-12-08 18:26:15.4310,-1.001,0.324,-0.414,-0.44,-3.3,2.33
2022-12-08 18:26:15.4410,-1.071,0.307,-0.358,0.28,-3.48,1.78
2022-12-08 18:26:15.4510,-1.128,0.261,-0.273,0.95,-3.31,1.3
2022-12-08 18:26:15.4610,-1.161,0.192,-0.145,1.48,-2.84,0.57
2022-12-08 18:26:15.4710,-1.163,0.137,-0.019,1.78,-2.12,-0.54
2022-12-08 18:26:15.4810,-1.166,0.061,0.053,1.76,-1.53,-1.63
2022-12-08 18:26:15.4910,-1.113,0.011,0.067,1.77,-0.73,-2.18
2022-12-08 18:26:15.5010,-1.047,-0.019,0.03,1.22,-0.19,-2.19
2022-12-08 18:26:15.5110,-0.994,-0.063,-0.056,0.56,0.16,-1.7
2022-12-08 18:26:15.5220,-0.962,-0.116,-0.146,0.02,0.63,-0.74
2022-12-08 18:26:15.5320,-0.938,-0.156,-0.192,-0.3,1.19,0.24
2022-12-08 18:26:15.5420,-0.904,-0.171,-0.218,-0.55,1.62,0.78
2022-12-08 18:26:15.5520,-0.859,-0.15,-0.217,-0.89,1.79,1.12
2022-12-08 18:26:15.5620,-0.806,-0.121,-0.238,-1.34,1.61,1.19
2022-12-08 18:26:15.5720,-0.74,-0.078,-0.274,-1.86,1.34,1.45
2022-12-08 18:26:15.5830,-0.643,-0.006,-0.263,-2.52,0.92,1.84
2022-12-08 18:26:15.5920,-0.568,0.044,-0.23,-3.47,0.23,1.77
2022-12-08 18:26:15.6020,-0.494,0.078,-0.193,-4.21,-0.27,1.47
2022-12-08 18:26:15.6120,-0.433,0.117,-0.138,-4.93,-0.6,1.11
2022-12-08 18:26:15.6220,-0.401,0.158,-0.07,-5.53,-0.98,0.58
2022-12-08 18:26:15.6320,-0.406,0.17,-0.015,-5.84,-1.38,-0.1
2022-12-08 18:26:15.6420,-0.503,0.134,0.004,-5.8,-1.5,-0.66
2022-12-08 18:26:15.6520,-0.548,0.075,0.009,-4.85,-1.15,-0.88
2022-12-08 18:26:15.6620,-0.615,0.055,0.029,-4.4,-0.57,-0.96
2022-12-08 18:26:15.6720,-0.707,0.073,0.066,-3.74,-0.38,-1.17
2022-12-08 18:26:15.6820,-0.789,0.077,0.12,-2.84,-0.56,-1.54
2022-12-08 18:26:15.6920,-0.883,0.06,0.202,-2.04,-0.61,-2.05
2022-12-08 18:26:15.7020,-0.973,0.039,0.288,-1.12,-0.46,-2.83
2022-12-08 18:26:15.7120,-1.05,0.002,0.322,-0.24,-0.28,-3.64
2022-12-08 18:26:15.7220,-1.105,-0.043,0.271,0.52,0.06,-3.95
2022-12-08 18:26:15.7320,-1.16,-0.096,0.14,1.06,0.47,-3.43
2022-12-08 18:26:15.7420,-1.277,-0.159,-0.034,1.6,0.98,-2.15
2022-12-08 18:26:15.7520,-1.388,-0.166,-0.195,2.74,1.59,-0.49
2022-12-08 18:26:15.7620,-1.409,-0.109,-0.157,3.84,1.68,1.03
2022-12-08 18:26:15.7720,-1.402,-0.112,0.112,4.05,1.13,0.65
2022-12-08 18:26:15.7820,-1.392,-0.162,0.414,3.97,1.18,-1.95
2022-12-08 18:26:15.7920,-1.391,-0.196,0.568,3.87,1.67,-4.81
2022-12-08 18:26:15.8020,-1.447,-0.222,0.515,3.85,1.99,-6.15
2022-12-08 18:26:15.8120,-1.469,-0.284,0.297,4.38,2.26,-5.42
2022-12-08 18:26:15.8220,-1.46,-0.19,0.103,4.6,2.89,-3.06
2022-12-08 18:26:15.8320,-1.456,0.015,0.022,4.51,2.01,-0.94
2022-12-08 18:26:15.8420,-1.357,0.13,0.028,4.48,0.04,0.03
2022-12-08 18:26:15.8520,-1.226,0.233,0.058,3.51,-1.06,0.09
2022-12-08 18:26:15.8620,-1.081,0.27,-0.025,2.22,-2.03,-0.17
2022-12-08 18:26:15.8720,-0.983,0.263,-0.175,0.8,-2.35,0.6
2022-12-08 18:26:15.8820,-0.943,0.279,-0.284,-0.16,-2.23,1.98
2022-12-08 18:26:15.8920,-0.884,0.254,-0.329,-0.55,-2.34,2.97
2022-12-08 18:26:15.9020,-0.826,0.242,-0.326,-1.13,-2.07,3.36
2022-12-08 18:26:15.9120,-0.776,0.236,-0.359,-1.7,-1.93,3.32
2022-12-08 18:26:15.9230,-0.775,0.197,-0.402,-2.19,-1.88,3.65
2022-12-08 18:26:15.9330,-0.846,0.18,-0.406,-2.21,-1.53,4.09
2022-12-08 18:26:15.9430,-0.944,0.163,-0.4,-1.51,-1.39,4.14
2022-12-08 18:26:15.9530,-1.077,0.106,-0.401,-0.55,-1.24,4.08
2022-12-08 18:26:15.9630,-1.2,0.018,-0.39,0.76,-0.71,4.07
2022-12-08 18:26:15.9730,-1.295,-0.059,-0.321,1.96,0.12,3.89
2022-12-08 18:26:15.9830,-1.337,-0.097,-0.22,2.9,0.85,3.13
2022-12-08 18:26:15.9930,-1.274,-0.104,-0.098,3.3,1.19,2.06
2022-12-08 18:26:16.0030,-1.192,-0.095,0.001,2.68,1.22,0.78
2022-12-08 18:26:16.0130,-1.129,-0.094,0.057,1.88,1.1,-0.28
2022-12-08 18:26:16.0230,-1.08,-0.077,0.064,1.27,1.05,-0.91
2022-12-08 18:26:16.0330,-1.042,-0.068,0.032,0.79,0.85,-1.09
2022-12-08 18:26:16.0430,-0.994,-0.074,-0.016,0.43,0.73,-0.9
2022-12-08 18:26:16.0530,-0.939,-0.071,-0.067,-0.04,0.77,-0.57
2022-12-08 18:26:16.0630,-0.861,-0.053,-0.098,-0.57,0.72,-0.21
2022-12-08 18:26:16.0730,-0.777,-0.012,-0.109,-1.32,0.54,-0.06
2022-12-08 18:26:16.0830,-0.708,0.02,-0.133,-2.12,0.12,-0.1
2022-12-08 18:26:16.0930,-0.649,0.05,-0.158,-2.78,-0.21,-0.03
2022-12-08 18:26:16.1030,-0.609,0.077,-0.171,-3.33,-0.51,0.05
2022-12-08 18:26:16.1130,-0.587,0.098,-0.174,-3.69,-0.79,0.0
2022-12-08 18:26:16.1230,-0.587,0.116,-0.165,-3.89,-1.01,-0.13
2022-12-08 18:26:16.1330,-0.604,0.116,-0.13,-3.86,-1.19,-0.37
2022-12-08 18:26:16.1430,-0.633,0.088,-0.086,-3.66,-1.19,-0.84
2022-12-08 18:26:16.1530,-0.662,0.044,-0.051,-3.35,-0.9,-1.4
2022-12-08 18:26:16.1630,-0.69,0.015,-0.036,-3.04,-0.46,-1.85
2022-12-08 18:26:16.1730,-0.711,-0.006,-0.036,-2.73,-0.15,-2.1
2022-12-08 18:26:16.1830,-0.726,-0.023,-0.054,-2.5,0.08,-2.2
2022-12-08 18:26:16.1930,-0.745,-0.032,-0.078,-2.33,0.28,-2.12
2022-12-08 18:26:16.2030,-0.772,-0.039,-0.098,-2.12,0.41,-1.97
2022-12-08 18:26:16.2130,-0.803,-0.048,-0.113,-1.83,0.53,-1.87
2022-12-08 18:26:16.2230,-0.841,-0.067,-0.13,-1.5,0.66,-1.8
2022-12-08 18:26:16.2330,-0.885,-0.098,-0.138,-1.1,0.88,-1.7
2022-12-08 18:26:16.2430,-0.932,-0.125,-0.14,-0.65,1.21,-1.7
2022-12-08 18:26:16.2530,-0.982,-0.141,-0.145,-0.16,1.51,-1.74
2022-12-08 18:26:16.2630,-1.036,-0.144,-0.167,0.35,1.69,-1.74
2022-12-08 18:26:16.2730,-1.094,-0.139,-0.206,0.89,1.73,-1.57
2022-12-08 18:26:16.2830,-1.153,-0.127,-0.234,1.48,1.7,-1.22
2022-12-08 18:26:16.2930,-1.248,-0.135,-0.234,2.05,1.59,-0.96
2022-12-08 18:26:16.3030,-1.327,-0.151,-0.225,2.99,1.67,-0.96
2022-12-08 18:26:16.3130,-1.393,-0.169,-0.208,3.76,1.82,-1.05
2022-12-08 18:26:16.3230,-1.43,-0.18,-0.199,4.41,1.98,-1.21
2022-12-08 18:26:16.3330,-1.446,-0.192,-0.269,4.77,2.06,-1.29
2022-12-08 18:26:16.3430,-1.457,-0.205,-0.379,4.91,2.16,-0.58
2022-12-08 18:26:16.3540,-1.435,-0.194,-0.41,5.01,2.25,0.54
2022-12-08 18:26:16.3640,-1.38,-0.171,-0.364,4.78,2.11,0.89
2022-12-08 18:26:16.3740,-1.316,-0.138,-0.319,4.22,1.85,0.48
2022-12-08 18:26:16.3840,-1.248,-0.105,-0.331,3.58,1.51,0.09
2022-12-08 18:26:16.3940,-1.178,-0.051,-0.387,2.89,1.17,0.27
2022-12-08 18:26:16.4040,-1.105,0.023,-0.452,2.17,0.62,0.92
2022-12-08 18:26:16.4140,-1.033,0.093,-0.495,1.43,-0.12,1.65
2022-12-08 18:26:16.4240,-0.975,0.15,-0.514,0.68,-0.83,2.2
2022-12-08 18:26:16.4340,-0.931,0.179,-0.513,0.08,-1.41,2.5
2022-12-08 18:26:16.4440,-0.891,0.183,-0.528,-0.38,-1.71,2.62
2022-12-08 18:26:16.4540,-0.865,0.172,-0.595,-0.8,-1.76,2.88
2022-12-08 18:26:16.4640,-0.858,0.175,-0.68,-1.08,-1.67,3.63
2022-12-08 18:26:16.4740,-0.857,0.198,-0.73,-1.17,-1.71,4.53
2022-12-08 18:26:16.4840,-0.857,0.231,-0.711,-1.18,-1.96,5.07
2022-12-08 18:26:16.4940,-0.873,0.248,-0.603,-1.19,-2.31,4.91
2022-12-08 18:26:16.5040,-0.925,0.269,-0.431,-1.03,-2.5,3.87
2022-12-08 18:26:16.5140,-0.98,0.26,-0.269,-0.53,-2.73,2.2
2022-12-08 18:26:16.5240,-1.044,0.2,-0.237,0.0,-2.65,0.64
2022-12-08 18:26:16.5340,-1.127,0.141,-0.226,0.62,-2.05,0.4
2022-12-08 18:26:16.5440,-1.182,0.129,-0.142,1.41,-1.46,0.43
2022-12-08 18:26:16.5540,-1.173,0.1,-0.053,1.91,-1.32,-0.2
2022-12-08 18:26:16.5640,-1.098,0.032,-0.01,1.79,-0.99,-0.87
2022-12-08 18:26:16.5740,-1.006,-0.029,0.006,1.03,-0.27,-1.07
2022-12-08 18:26:16.5840,-0.941,-0.079,0.011,0.11,0.39,-1.04
2022-12-08 18:26:16.5940,-0.906,-0.113,0.006,-0.55,0.93,-0.92
2022-12-08 18:26:16.6040,-0.893,-0.125,0.006,-0.9,1.32,-0.73
2022-12-08 18:26:16.6140,-0.867,-0.142,-0.028,-1.03,1.49,-0.62
2022-12-08 18:26:16.6240,-0.833,-0.131,-0.125,-1.3,1.7,-0.17
2022-12-08 18:26:16.6340,-0.793,-0.062,-0.192,-1.63,1.64,0.85
2022-12-08 18:26:16.6440,-0.721,0.014,-0.196,-2.02,1.0,1.57
2022-12-08 18:26:16.6540,-0.644,0.083,-0.188,-2.73,0.28,1.65
2022-12-08 18:26:16.6640,-0.578,0.137,-0.138,-3.48,-0.38,1.6
2022-12-08 18:26:16.6740,-0.514,0.153,-0.071,-4.13,-0.89,1.12
2022-12-08 18:26:16.6840,-0.44,0.163,-0.024,-4.76,-1.04,0.45
2022-12-08 18:26:16.6940,-0.387,0.167,-0.007,-5.49,-1.12,-0.02
2022-12-08 18:26:16.7040,-0.449,0.156,-0.015,-6.0,-1.14,-0.23
2022-12-08 18:26:16.7140,-0.543,0.131,-0.03,-5.39,-1.03,-0.19
2022-12-08 18:26:16.7240,-0.584,0.106,-0.013,-4.46,-0.77,-0.09
2022-12-08 18:26:16.7350,-0.638,0.099,0.027,-4.06,-0.52,-0.31
2022-12-08 18:26:16.7440,-0.68,0.107,0.07,-3.53,-0.45,-0.75
2022-12-08 18:26:16.7540,-0.756,0.117,0.127,-3.11,-0.53,-1.22
2022-12-08 18:26:16.7650,-0.841,0.113,0.187,-2.37,-0.64,-1.82
2022-12-08 18:26:16.7750,-0.964,0.123,0.21,-1.53,-0.64,-2.42
2022-12-08 18:26:16.7840,-1.035,0.1,0.209,-0.34,-0.78,-2.64
2022-12-08 18:26:16.7950,-1.042,0.01,0.275,0.36,-0.61,-2.59
2022-12-08 18:26:16.8050,-1.078,-0.123,0.275,0.42,0.2,-3.19
2022-12-08 18:26:16.8150,-1.191,-0.243,0.116,0.77,1.45,-3.17
2022-12-08 18:26:16.8250,-1.356,-0.312,-0.052,1.88,2.61,-1.61
2022-12-08 18:26:16.8350,-1.485,-0.252,-0.106,3.5,3.3,-0.01
2022-12-08 18:26:16.8450,-1.494,-0.154,0.036,4.77,2.73,0.48
2022-12-08 18:26:16.8550,-1.422,-0.119,0.34,4.86,1.79,-0.91
2022-12-08 18:26:16.8650,-1.364,-0.112,0.604,4.15,1.46,-3.84
2022-12-08 18:26:16.8750,-1.359,-0.148,0.623,3.57,1.4,-6.29
2022-12-08 18:26:16.8850,-1.441,-0.24,0.447,3.52,1.76,-6.28
2022-12-08 18:26:16.8950,-1.484,-0.188,0.279,4.33,2.69,-4.35
2022-12-08 18:26:16.9050,-1.411,-0.015,0.131,4.75,2.23,-2.53
2022-12-08 18:26:16.9150,-1.284,0.075,0.026,4.04,0.57,-0.95
2022-12-08 18:26:16.9250,-1.114,0.189,0.02,2.8,-0.26,0.16
2022-12-08 18:26:16.9350,-0.969,0.299,-0.046,1.14,-1.33,0.26
2022-12-08 18:26:16.9450,-0.918,0.324,-0.185,-0.28,-2.33,0.86
2022-12-08 18:26:16.9550,-0.918,0.359,-0.316,-0.78,-2.52,2.12
2022-12-08 18:26:16.9650,-0.908,0.405,-0.388,-0.79,-2.81,3.28
2022-12-08 18:26:16.9750,-0.887,0.422,-0.42,-0.87,-3.23,3.88
2022-12-08 18:26:16.9850,-0.844,0.399,-0.427,-1.08,-3.36,4.12
2022-12-08 18:26:16.9950,-0.825,0.368,-0.43,-1.5,-3.13,4.13
2022-12-08 18:26:17.0050,-0.884,0.3,-0.425,-1.69,-2.83,4.15
2022-12-08 18:26:17.0150,-0.998,0.245,-0.412,-1.11,-2.18,4.1
2022-12-08 18:26:17.0250,-1.157,0.222,-0.395,0.0,-1.66,4.01
2022-12-08 18:26:17.0350,-1.31,0.165,-0.38,1.56,-1.47,3.87
2022-12-08 18:26:17.0450,-1.381,0.083,-0.352,3.05,-0.97,3.71
2022-12-08 18:26:17.0550,-1.37,0.029,-0.268,3.75,-0.21,3.4
2022-12-08 18:26:17.0650,-1.293,-0.009,-0.152,3.64,0.27,2.51
2022-12-08 18:26:17.0750,-1.246,-0.011,-0.078,2.89,0.59,1.32
2022-12-08 18:26:17.0850,-1.191,0.024,-0.052,2.42,0.53,0.53
2022-12-08 18:26:17.0950,-1.087,0.013,-0.027,1.88,0.11,0.22
2022-12-08 18:26:17.1050,-0.986,-0.008,-0.024,0.86,0.13,-0.12
2022-12-08 18:26:17.1150,-0.937,-0.035,-0.045,-0.13,0.25,-0.25
2022-12-08 18:26:17.1250,-0.893,-0.078,-0.036,-0.6,0.44,-0.16
2022-12-08 18:26:17.1350,-0.822,-0.084,-0.027,-1.03,0.79,-0.38
2022-12-08 18:26:17.1450,-0.752,-0.114,-0.035,-1.72,0.8,-0.61
2022-12-08 18:26:17.1550,-0.705,-0.097,-0.037,-2.38,1.06,-0.67
2022-12-08 18:26:17.1650,-0.66,-0.041,-0.04,-2.84,0.86,-0.79
2022-12-08 18:26:17.1750,-0.613,0.008,-0.057,-3.25,0.29,-0.89
2022-12-08 18:26:17.1850,-0.587,0.036,-0.092,-3.7,-0.21,-0.85
2022-12-08 18:26:17.1960,-0.574,0.04,-0.136,-3.94,-0.5,-0.62
2022-12-08 18:26:17.2060,-0.564,0.034,-0.16,-4.05,-0.55,-0.3
2022-12-08 18:26:17.2160,-0.562,0.028,-0.15,-4.13,-0.5,-0.17
2022-12-08 18:26:17.2260,-0.571,0.017,-0.137,-4.13,-0.44,-0.36
2022-12-08 18:26:17.2360,-0.603,0.004,-0.13,-4.02,-0.33,-0.59
2022-12-08 18:26:17.2460,-0.652,-0.011,-0.116,-3.68,-0.19,-0.75
2022-12-08 18:26:17.2560,-0.704,-0.019,-0.093,-3.18,-0.02,-0.98
2022-12-08 18:26:17.2660,-0.764,-0.022,-0.063,-2.66,0.08,-1.3
2022-12-08 18:26:17.2760,-0.826,-0.03,-0.04,-2.05,0.15,-1.68
2022-12-08 18:26:17.2860,-0.898,-0.052,-0.036,-1.42,0.27,-1.98
2022-12-08 18:26:17.2960,-0.96,-0.085,-0.044,-0.69,0.54,-2.1
2022-12-08 18:26:17.3060,-0.993,-0.107,-0.057,-0.06,0.91,-2.1
2022-12-08 18:26:17.3160,-1.008,-0.125,-0.071,0.28,1.18,-2.05
2022-12-08 18:26:17.3260,-1.007,-0.13,-0.09,0.45,1.4,-1.99
2022-12-08 18:26:17.3360,-1.006,-0.116,-0.127,0.46,1.49,-1.88
2022-12-08 18:26:17.3460,-1.015,-0.095,-0.184,0.47,1.4,-1.59
2022-12-08 18:26:17.3560,-1.057,-0.071,-0.248,0.58,1.24,-1.09
2022-12-08 18:26:17.3660,-1.134,-0.047,-0.289,1.01,1.03,-0.5
2022-12-08 18:26:17.3760,-1.221,-0.047,-0.303,1.78,0.82,-0.13
2022-12-08 18:26:17.3860,-1.289,-0.061,-0.299,2.63,0.83,-0.02
2022-12-08 18:26:17.3960,-1.342,-0.083,-0.26,3.3,0.96,-0.08
2022-12-08 18:26:17.4060,-1.368,-0.117,-0.173,3.83,1.16,-0.47
2022-12-08 18:26:17.4160,-1.377,-0.137,-0.139,4.09,1.48,-1.34
2022-12-08 18:26:17.4260,-1.404,-0.153,-0.233,4.18,1.66,-1.67
2022-12-08 18:26:17.4360,-1.41,-0.156,-0.331,4.44,1.78,-0.73
2022-12-08 18:26:17.4460,-1.38,-0.147,-0.348,4.48,1.78,0.25
2022-12-08 18:26:17.4560,-1.332,-0.137,-0.344,4.18,1.66,0.46
2022-12-08 18:26:17.4660,-1.27,-0.121,-0.361,3.69,1.53,0.46
2022-12-08 18:26:17.4760,-1.208,-0.088,-0.385,3.07,1.35,0.71
2022-12-08 18:26:17.4860,-1.145,-0.054,-0.401,2.43,1.0,1.03
2022-12-08 18:26:17.4960,-1.072,-0.017,-0.431,1.78,0.65,1.29
2022-12-08 18:26:17.5060,-0.998,0.033,-0.476,1.03,0.27,1.71
2022-12-08 18:26:17.5160,-0.92,0.085,-0.497,0.27,-0.24,2.26
2022-12-08 18:26:17.5260,-0.848,0.123,-0.491,-0.52,-0.77,2.59
2022-12-08 18:26:17.5360,-0.799,0.144,-0.492,-1.26,-1.15,2.65
2022-12-08 18:26:17.5460,-0.781,0.17,-0.486,-1.76,-1.37,2.77
2022-12-08 18:26:17.5560,-0.787,0.201,-0.457,-1.96,-1.64,2.82
2022-12-08 18:26:17.5660,-0.834,0.235,-0.405,-1.91,-1.95,2.62
2022-12-08 18:26:17.5760,-0.897,0.257,-0.353,-1.47,-2.29,2.18
2022-12-08 18:26:17.5860,-0.963,0.267,-0.294,-0.86,-2.51,1.72
2022-12-08 18:26:17.5960,-1.028,0.273,-0.199,-0.22,-2.62,1.19
2022-12-08 18:26:17.6070,-1.065,0.271,-0.118,0.41,-2.67,0.3
2022-12-08 18:26:17.6160,-1.097,0.253,-0.084,0.77,-2.65,-0.45
2022-12-08 18:26:17.6270,-1.109,0.223,-0.085,1.07,-2.46,-0.71
2022-12-08 18:26:17.6360,-1.119,0.177,-0.076,1.17,-2.16,-0.6
2022-12-08 18:26:17.6470,-1.116,0.121,-0.067,1.25,-1.69,-0.55
2022-12-08 18:26:17.6570,-1.094,0.081,-0.08,1.2,-1.11,-0.49
2022-12-08 18:26:17.6670,-1.058,0.056,-0.107,0.97,-0.69,-0.2
2022-12-08 18:26:17.6770,-0.995,0.017,-0.131,0.6,-0.41,0.22
2022-12-08 18:26:17.6870,-0.934,0.007,-0.145,-0.03,0.01,0.61
2022-12-08 18:26:17.6970,-0.898,-0.029,-0.154,-0.64,0.14,0.9
2022-12-08 18:26:17.7070,-0.869,-0.063,-0.161,-0.99,0.53,1.1
2022-12-08 18:26:17.7170,-0.84,-0.076,-0.153,-1.28,0.9,1.28
2022-12-08 18:26:17.7270,-0.809,-0.08,-0.138,-1.57,1.05,1.3
2022-12-08 18:26:17.7370,-0.759,-0.062,-0.119,-1.87,1.12,1.24
2022-12-08 18:26:17.7470,-0.701,-0.051,-0.106,-2.36,0.97,1.12
2022-12-08 18:26:17.7570,-0.632,-0.027,-0.118,-2.93,0.88,1.05
2022-12-08 18:26:17.7670,-0.574,0.022,-0.089,-3.6,0.67,1.2
2022-12-08 18:26:17.7770,-0.525,0.056,-0.054,-4.18,0.2,0.94
2022-12-08 18:26:17.7870,-0.487,0.089,-0.042,-4.66,-0.11,0.61
2022-12-08 18:26:17.7970,-0.446,0.121,-0.035,-5.03,-0.44,0.47
2022-12-08 18:26:17.8070,-0.438,0.123,-0.028,-5.43,-0.74,0.37
2022-12-08 18:26:17.8170,-0.502,0.105,-0.011,-5.51,-0.75,0.26
2022-12-08 18:26:17.8270,-0.555,0.1,0.011,-4.88,-0.58,0.04
2022-12-08 18:26:17.8370,-0.613,0.112,0.031,-4.36,-0.54,-0.23
2022-12-08 18:26:17.8470,-0.694,0.136,0.066,-3.79,-0.65,-0.49
2022-12-08 18:26:17.8570,-0.781,0.151,0.118,-3.0,-0.89,-0.87
2022-12-08 18:26:17.8670,-0.878,0.144,0.18,-2.14,-1.06,-1.42
2022-12-08 18:26:17.8770,-0.978,0.097,0.235,-1.19,-1.0,-2.04
2022-12-08 18:26:17.8870,-1.096,0.017,0.282,-0.2,-0.55,-2.57
2022-12-08 18:26:17.8970,-1.23,-0.088,0.291,0.95,0.24,-3.0
2022-12-08 18:26:17.9070,-1.378,-0.184,0.227,2.26,1.26,-3.07
2022-12-08 18:26:17.9170,-1.477,-0.213,0.112,3.71,2.21,-2.44
2022-12-08 18:26:17.9270,-1.474,-0.141,0.076,4.69,2.49,-1.32
2022-12-08 18:26:17.9370,-1.461,-0.107,0.188,4.66,1.8,-0.95
2022-12-08 18:26:17.9470,-1.458,-0.143,0.391,4.52,1.46,-2.02
2022-12-08 18:26:17.9570,-1.442,-0.178,0.58,4.5,1.8,-3.92
2022-12-08 18:26:17.9670,-1.438,-0.196,0.652,4.34,2.13,-5.65
2022-12-08 18:26:17.9770,-1.41,-0.194,0.554,4.3,2.27,-6.16
2022-12-08 18:26:17.9870,-1.429,-0.157,0.404,4.03,2.22,-4.97
2022-12-08 18:26:17.9970,-1.423,-0.012,0.252,4.23,1.85,-3.29
2022-12-08 18:26:18.0070,-1.357,0.145,0.126,4.19,0.43,-1.67
2022-12-08 18:26:18.0170,-1.206,0.257,0.043,3.54,-1.12,-0.36
2022-12-08 18:26:18.0280,-0.991,0.296,-0.045,2.06,-2.24,0.48
2022-12-08 18:26:18.0380,-0.83,0.266,-0.191,-0.05,-2.65,1.33
2022-12-08 18:26:18.0470,-0.879,0.261,-0.3,-1.63,-2.35,2.71
2022-12-08 18:26:18.0580,-0.927,0.31,-0.335,-1.16,-2.27,3.73
2022-12-08 18:26:18.0680,-0.908,0.367,-0.296,-0.68,-2.72,4.04
2022-12-08 18:26:18.0770,-0.873,0.415,-0.25,-0.87,-3.23,3.62
2022-12-08 18:26:18.0880,-0.797,0.428,-0.208,-1.21,-3.66,3.14
2022-12-08 18:26:18.0980,-0.774,0.354,-0.161,-1.96,-3.76,2.73
2022-12-08 18:26:18.1080,-0.857,0.256,-0.123,-2.18,-3.01,2.27
2022-12-08 18:26:18.1180,-0.992,0.183,-0.109,-0.05,-1.32,1.78
2022-12-08 18:26:18.1300,-1.133,0.118,-0.116,-0.05,-1.32,1.78
2022-12-08 18:26:18.1380,-1.295,0.016,-0.136,1.34,-0.69,1.82
2022-12-08 18:26:18.1480,-1.385,-0.092,-0.144,2.91,0.29,1.93
2022-12-08 18:26:18.1580,-1.394,-0.132,-0.1,3.8,1.33,1.89
2022-12-08 18:26:18.1680,-1.304,-0.108,-0.054,3.87,1.67,1.33
2022-12-08 18:26:18.1780,-1.187,-0.083,-0.017,2.98,1.37,0.76
2022-12-08 18:26:18.1880,-1.099,-0.073,0.002,1.83,1.06,0.28
2022-12-08 18:26:18.1980,-1.009,-0.043,0.007,0.97,0.91,-0.03
2022-12-08 18:26:18.2080,-0.937,-0.007,0.01,0.08,0.56,-0.19
2022-12-08 18:26:18.2180,-0.883,0.008,-0.0,-1.15,-0.01,-0.35
2022-12-08 18:26:18.2300,-0.837,0.01,-0.012,-1.15,-0.01,-0.35
2022-12-08 18:26:18.2380,-0.788,0.009,-0.024,-1.59,-0.06,-0.37
2022-12-08 18:26:18.2480,-0.743,0.008,-0.036,-2.07,-0.07,-0.39
2022-12-08 18:26:18.2580,-0.698,0.014,-0.05,-2.49,-0.09,-0.43
2022-12-08 18:26:18.2680,-0.655,0.029,-0.068,-2.93,-0.18,-0.45
2022-12-08 18:26:18.2780,-0.626,0.038,-0.102,-3.33,-0.35,-0.43
2022-12-08 18:26:18.2880,-0.613,0.052,-0.133,-3.59,-0.46,-0.26
2022-12-08 18:26:18.2980,-0.61,0.07,-0.148,-3.7,-0.63,-0.1
2022-12-08 18:26:18.3080,-0.618,0.09,-0.15,-3.71,-0.83,-0.1
2022-12-08 18:26:18.3180,-0.624,0.085,-0.155,-3.61,-1.04,-0.22
2022-12-08 18:26:18.3280,-0.636,0.053,-0.153,-3.52,-1.01,-0.32
2022-12-08 18:26:18.3380,-0.7,0.032,-0.141,-3.38,-0.7,-0.47
2022-12-08 18:26:18.3480,-0.768,0.021,-0.116,-2.72,-0.49,-0.71
2022-12-08 18:26:18.3580,-0.817,0.014,-0.087,-2.03,-0.37,-1.06
2022-12-08 18:26:18.3680,-0.869,0.004,-0.057,-1.53,-0.28,-1.44
2022-12-08 18:26:18.3780,-0.913,-0.022,-0.024,-0.55,0.14,-2.22
2022-12-08 18:26:18.3910,-0.95,-0.062,0.003,-0.55,0.14,-2.22
2022-12-08 18:26:18.3980,-0.973,-0.103,0.01,-0.17,0.57,-2.55
2022-12-08 18:26:18.4080,-0.976,-0.134,-0.015,0.07,1.02,-2.69
2022-12-08 18:26:18.4180,-0.978,-0.143,-0.077,0.13,1.36,-2.52
2022-12-08 18:26:18.4280,-0.985,-0.136,-0.153,0.17,1.48,-1.99
2022-12-08 18:26:18.4380,-0.994,-0.102,-0.207,0.26,1.45,-1.31
2022-12-08 18:26:18.4480,-1.032,-0.045,-0.226,0.36,1.14,-0.85
2022-12-08 18:26:18.4580,-1.112,-0.012,-0.233,0.76,0.61,-0.71
2022-12-08 18:26:18.4690,-1.199,-0.014,-0.214,1.55,0.31,-0.68
2022-12-08 18:26:18.4790,-1.269,-0.055,-0.186,2.42,0.34,-0.9
2022-12-08 18:26:18.4880,-1.345,-0.077,-0.143,3.1,0.74,-1.18
2022-12-08 18:26:18.4990,-1.389,-0.077,-0.079,3.86,0.96,-1.61
2022-12-08 18:26:18.5090,-1.363,-0.09,-0.039,4.29,0.94,-2.25
2022-12-08 18:26:18.5190,-1.348,-0.116,-0.115,4.04,1.05,-2.64
2022-12-08 18:26:18.5290,-1.366,-0.123,-0.247,3.89,1.3,-1.88
2022-12-08 18:26:18.5390,-1.361,-0.117,-0.318,4.05,1.34,-0.56
2022-12-08 18:26:18.5490,-1.314,-0.103,-0.33,3.99,1.25,0.17
2022-12-08 18:26:18.5590,-1.261,-0.082,-0.329,3.52,1.09,0.32
2022-12-08 18:26:18.5690,-1.17,-0.047,-0.35,2.97,0.87,0.38
2022-12-08 18:26:18.5790,-1.101,0.0,-0.355,2.06,0.52,0.68
2022-12-08 18:26:18.5890,-1.049,0.041,-0.385,1.35,0.05,0.84
2022-12-08 18:26:18.5990,-1.004,0.073,-0.426,0.8,-0.35,1.25
2022-12-08 18:26:18.6090,-0.966,0.095,-0.469,0.33,-0.66,1.78
2022-12-08 18:26:18.6190,-0.927,0.111,-0.524,-0.07,-0.88,2.33
2022-12-08 18:26:18.6290,-0.892,0.13,-0.598,-0.48,-1.04,2.99
2022-12-08 18:26:18.6390,-0.868,0.161,-0.667,-0.85,-1.23,3.82
2022-12-08 18:26:18.6490,-0.883,0.197,-0.702,-1.1,-1.54,4.6
2022-12-08 18:26:18.6590,-0.896,0.237,-0.689,-0.97,-1.91,5.02
2022-12-08 18:26:18.6690,-0.899,0.284,-0.593,-0.86,-2.31,4.95
2022-12-08 18:26:18.6790,-0.917,0.321,-0.425,-0.84,-2.78,4.05
2022-12-08 18:26:18.6890,-0.959,0.335,-0.262,-0.67,-3.14,2.45
2022-12-08 18:26:18.6990,-1.015,0.317,-0.142,-0.26,-3.26,0.88
2022-12-08 18:26:18.7090,-1.07,0.268,-0.084,0.29,-3.07,-0.26
2022-12-08 18:26:18.7190,-1.098,0.206,-0.085,0.81,-2.57,-0.79
2022-12-08 18:26:18.7290,-1.094,0.147,-0.126,1.08,-1.93,-0.72
2022-12-08 18:26:18.7390,-1.084,0.097,-0.147,1.03,-1.33,-0.24
2022-12-08 18:26:18.7490,-1.051,0.043,-0.155,0.91,-0.81,0.08
2022-12-08 18:26:18.7590,-1.025,-0.011,-0.144,0.57,-0.25,0.29
2022-12-08 18:26:18.7690,-0.989,-0.052,-0.133,0.3,0.31,0.32
2022-12-08 18:26:18.7790,-0.962,-0.096,-0.121,-0.07,0.74,0.34
2022-12-08 18:26:18.7890,-0.939,-0.139,-0.1,-0.34,1.2,0.35
2022-12-08 18:26:18.7990,-0.925,-0.165,-0.063,-0.58,1.64,0.28
2022-12-08 18:26:18.8090,-0.881,-0.164,-0.036,-0.72,1.91,0.02
2022-12-08 18:26:18.8190,-0.837,-0.142,-0.044,-1.15,1.92,-0.14
2022-12-08 18:26:18.8290,-0.771,-0.11,-0.06,-1.59,1.71,0.02
2022-12-08 18:26:18.8390,-0.694,-0.059,-0.064,-2.23,1.42,0.24
2022-12-08 18:26:18.8490,-0.637,0.019,-0.049,-2.99,0.93,0.34
2022-12-08 18:26:18.8590,-0.568,0.073,-0.03,-3.55,0.19,0.23
2022-12-08 18:26:18.8700,-0.516,0.114,-0.024,-4.23,-0.32,0.05
2022-12-08 18:26:18.8800,-0.474,0.14,-0.023,-4.74,-0.71,0.0
2022-12-08 18:26:18.8890,-0.444,0.154,-0.012,-5.16,-0.95,-0.03
2022-12-08 18:26:18.9000,-0.466,0.135,-0.005,-5.45,-1.08,-0.16
2022-12-08 18:26:18.9100,-0.52,0.101,0.01,-5.23,-0.89,-0.27
2022-12-08 18:26:18.9200,-0.558,0.091,0.033,-4.7,-0.54,-0.47
2022-12-08 18:26:18.9300,-0.632,0.098,0.058,-4.32,-0.44,-0.75
2022-12-08 18:26:18.9400,-0.699,0.093,0.074,-3.59,-0.5,-1.05
2022-12-08 18:26:18.9500,-0.777,0.093,0.105,-2.94,-0.46,-1.26
2022-12-08 18:26:18.9600,-0.879,0.086,0.163,-2.17,-0.46,-1.6
2022-12-08 18:26:18.9700,-0.995,0.039,0.214,-1.17,-0.4,-2.19
2022-12-08 18:26:18.9800,-1.13,-0.01,0.212,-0.03,0.05,-2.68
2022-12-08 18:26:18.9900,-1.24,-0.084,0.188,1.29,0.5,-2.62
2022-12-08 18:26:19.0000,-1.287,-0.219,0.183,2.37,1.19,-2.35
2022-12-08 18:26:19.0100,-1.365,-0.299,0.093,2.83,2.49,-2.29
2022-12-08 18:26:19.0200,-1.442,-0.197,0.015,3.6,3.27,-1.43
2022-12-08 18:26:19.0300,-1.401,-0.104,0.084,4.35,2.27,-0.68
2022-12-08 18:26:19.0400,-1.366,-0.114,0.285,3.95,1.36,-1.34
2022-12-08 18:26:19.0500,-1.344,-0.135,0.456,3.6,1.45,-3.26
2022-12-08 18:26:19.0600,-1.352,-0.148,0.482,3.38,1.65,-4.83
2022-12-08 18:26:19.0700,-1.415,-0.178,0.403,3.45,1.77,-4.92
2022-12-08 18:26:19.0800,-1.451,-0.08,0.307,4.08,2.08,-3.95
2022-12-08 18:26:19.0900,-1.396,0.059,0.213,4.43,1.14,-2.85
2022-12-08 18:26:19.1000,-1.299,0.136,0.162,3.89,-0.2,-1.8
2022-12-08 18:26:19.1100,-1.135,0.234,0.126,2.95,-0.93,-1.2
2022-12-08 18:26:19.1200,-0.977,0.359,0.027,1.33,-1.86,-0.79
2022-12-08 18:26:19.1300,-0.956,0.403,-0.107,-0.21,-3.04,0.16
2022-12-08 18:26:19.1400,-1.007,0.42,-0.216,-0.42,-3.41,1.4
2022-12-08 18:26:19.1500,-1.025,0.479,-0.275,0.09,-3.51,2.37
2022-12-08 18:26:19.1600,-0.969,0.545,-0.289,0.26,-4.03,2.88
2022-12-08 18:26:19.1700,-0.88,0.542,-0.244,-0.28,-4.63,2.96
2022-12-08 18:26:19.1800,-0.864,0.49,-0.209,-1.15,-4.58,2.5
2022-12-08 18:26:19.1900,-0.861,0.337,-0.267,-1.31,-4.09,2.14
2022-12-08 18:26:19.2000,-0.923,0.219,-0.326,-1.35,-2.63,2.71
2022-12-08 18:26:19.2100,-1.064,0.174,-0.348,-0.73,-1.51,3.28
2022-12-08 18:26:19.2200,-1.232,0.115,-0.367,0.64,-1.12,3.47
2022-12-08 18:26:19.2300,-1.315,-0.01,-0.36,2.29,-0.6,3.61
2022-12-08 18:26:19.2400,-1.27,-0.091,-0.304,3.09,0.56,3.46
2022-12-08 18:26:19.2500,-1.197,-0.09,-0.212,2.66,1.28,2.83
2022-12-08 18:26:19.2600,-1.14,-0.044,-0.126,1.94,1.19,1.87
2022-12-08 18:26:19.2700,-1.097,-0.006,-0.072,1.38,0.67,0.98
2022-12-08 18:26:19.2800,-1.047,0.018,-0.039,0.95,0.22,0.42
2022-12-08 18:26:19.2900,-1.023,0.018,-0.008,0.46,-0.07,0.05
2022-12-08 18:26:19.3010,-0.979,0.012,0.028,0.23,-0.13,-0.33
2022-12-08 18:26:19.3100,-0.896,-0.027,0.034,-0.2,-0.12,-0.77
2022-12-08 18:26:19.3210,-0.854,-0.066,0.034,-1.01,0.21,-0.95
2022-12-08 18:26:19.3300,-0.817,-0.083,0.02,-1.41,0.57,-1.08
2022-12-08 18:26:19.3410,-0.781,-0.043,-0.014,-1.76,0.7,-1.09
2022-12-08 18:26:19.3510,-0.718,0.007,-0.071,-2.1,0.29,-0.92
2022-12-08 18:26:19.3610,-0.659,0.035,-0.121,-2.69,-0.21,-0.54
2022-12-08 18:26:19.3710,-0.624,0.05,-0.161,-3.25,-0.49,-0.24
2022-12-08 18:26:19.3810,-0.608,0.057,-0.171,-3.56,-0.64,-0.05
2022-12-08 18:26:19.3910,-0.596,0.057,-0.17,-3.67,-0.7,-0.15
2022-12-08 18:26:19.4010,-0.58,0.054,-0.175,-3.76,-0.71,-0.36
2022-12-08 18:26:19.4110,-0.581,0.059,-0.172,-3.87,-0.67,-0.5
2022-12-08 18:26:19.4210,-0.601,0.062,-0.168,-3.82,-0.7,-0.71
2022-12-08 18:26:19.4310,-0.652,0.055,-0.163,-3.58,-0.72,-0.9
2022-12-08 18:26:19.4410,-0.707,0.037,-0.16,-3.05,-0.63,-1.08
2022-12-08 18:26:19.4510,-0.763,0.006,-0.151,-2.48,-0.44,-1.21
2022-12-08 18:26:19.4610,-0.822,-0.03,-0.125,-1.9,-0.1,-1.38
2022-12-08 18:26:19.4710,-0.881,-0.055,-0.104,-1.3,0.29,-1.71
2022-12-08 18:26:19.4810,-0.919,-0.087,-0.099,-0.7,0.58,-1.99
2022-12-08 18:26:19.4910,-0.943,-0.116,-0.107,-0.31,0.93,-2.1
2022-12-08 18:26:19.5010,-0.952,-0.149,-0.124,-0.05,1.26,-2.09
2022-12-08 18:26:19.5110,-0.963,-0.167,-0.148,0.06,1.62,-1.99
2022-12-08 18:26:19.5210,-0.989,-0.176,-0.182,0.19,1.83,-1.8
2022-12-08 18:26:19.5310,-1.023,-0.173,-0.217,0.46,1.95,-1.52
2022-12-08 18:26:19.5410,-1.074,-0.147,-0.231,0.81,1.94,-1.21
2022-12-08 18:26:19.5510,-1.133,-0.114,-0.215,1.32,1.71,-1.11
2022-12-08 18:26:19.5610,-1.236,-0.074,-0.185,1.91,1.41,-1.28
2022-12-08 18:26:19.5710,-1.328,-0.077,-0.158,2.92,1.03,-1.57
2022-12-08 18:26:19.5810,-1.381,-0.113,-0.155,3.82,1.06,-1.84
2022-12-08 18:26:19.5910,-1.411,-0.136,-0.174,4.34,1.41,-1.88
2022-12-08 18:26:19.6010,-1.409,-0.145,-0.249,4.63,1.61,-1.68
2022-12-08 18:26:19.6110,-1.402,-0.145,-0.339,4.61,1.68,-0.94
2022-12-08 18:26:19.6210,-1.4,-0.131,-0.389,4.53,1.67,-0.03
2022-12-08 18:26:19.6310,-1.388,-0.102,-0.416,4.51,1.5,0.48
2022-12-08 18:26:19.6410,-1.369,-0.077,-0.433,4.37,1.19,0.78
2022-12-08 18:26:19.6510,-1.329,-0.054,-0.427,4.17,0.92,0.99
2022-12-08 18:26:19.6610,-1.263,-0.017,-0.413,3.76,0.68,0.98
2022-12-08 18:26:19.6710,-1.181,0.047,-0.448,3.09,0.31,0.91
2022-12-08 18:26:19.6810,-1.093,0.126,-0.514,2.26,-0.32,1.33
2022-12-08 18:26:19.6910,-1.009,0.201,-0.58,1.37,-1.1,2.08
2022-12-08 18:26:19.7010,-0.926,0.269,-0.63,0.52,-1.81,2.81
2022-12-08 18:26:19.7110,-0.845,0.297,-0.677,-0.32,-2.44,3.36
2022-12-08 18:26:19.7210,-0.79,0.305,-0.696,-1.12,-2.68,3.85
2022-12-08 18:26:19.7310,-0.753,0.308,-0.665,-1.66,-2.71,4.04
2022-12-08 18:26:19.7420,-0.737,0.331,-0.589,-2.02,-2.7,3.72
2022-12-08 18:26:19.7520,-0.724,0.342,-0.504,-2.16,-2.89,2.93
2022-12-08 18:26:19.7620,-0.754,0.369,-0.401,-2.27,-2.97,2.06
2022-12-08 18:26:19.7720,-0.805,0.387,-0.282,-1.97,-3.22,1.01
2022-12-08 18:26:19.7820,-0.863,0.368,-0.203,-1.46,-3.35,-0.18
2022-12-08 18:26:19.7920,-0.932,0.305,-0.176,-0.89,-3.13,-0.96
2022-12-08 18:26:19.8020,-0.994,0.255,-0.187,-0.22,-2.48,-1.18
2022-12-08 18:26:19.8120,-1.031,0.227,-0.198,0.37,-1.95,-1.0
2022-12-08 18:26:19.8220,-1.026,0.187,-0.213,0.7,-1.61,-0.79
2022-12-08 18:26:19.8320,-0.998,0.125,-0.239,0.63,-1.16,-0.53
2022-12-08 18:26:19.8420,-0.984,0.052,-0.285,0.33,-0.49,-0.16
2022-12-08 18:26:19.8520,-0.987,-0.015,-0.314,0.17,0.29,0.4
2022-12-08 18:26:19.8620,-0.983,-0.077,-0.31,0.17,1.0,0.79
2022-12-08 18:26:19.8720,-0.988,-0.115,-0.278,0.12,1.66,0.86
2022-12-08 18:26:19.8820,-0.962,-0.113,-0.244,0.14,2.06,0.67
2022-12-08 18:26:19.8920,-0.92,-0.099,-0.212,-0.13,2.06,0.44
2022-12-08 18:26:19.9020,-0.873,-0.071,-0.188,-0.57,1.94,0.21
2022-12-08 18:26:19.9120,-0.802,-0.017,-0.185,-1.04,1.67,0.04
2022-12-08 18:26:19.9220,-0.711,0.033,-0.191,-1.74,1.14,0.07
2022-12-08 18:26:19.9320,-0.619,0.077,-0.188,-2.64,0.65,0.16
2022-12-08 18:26:19.9420,-0.543,0.114,-0.177,-3.55,0.22,0.14
2022-12-08 18:26:19.9520,-0.491,0.133,-0.167,-4.3,-0.15,0.05
2022-12-08 18:26:19.9620,-0.457,0.15,-0.167,-4.81,-0.33,-0.04
2022-12-08 18:26:19.9720,-0.443,0.151,-0.156,-5.13,-0.49,-0.05
2022-12-08 18:26:19.9820,-0.439,0.158,-0.133,-5.27,-0.49,-0.17
2022-12-08 18:26:19.9920,-0.486,0.151,-0.11,-5.31,-0.54,-0.41
2022-12-08 18:26:20.0020,-0.533,0.141,-0.097,-4.84,-0.46,-0.66
2022-12-08 18:26:20.0120,-0.607,0.148,-0.07,-4.38,-0.36,-0.8
2022-12-08 18:26:20.0220,-0.713,0.156,-0.022,-3.65,-0.42,-1.06
2022-12-08 18:26:20.0320,-0.809,0.155,0.038,-2.61,-0.5,-1.51
2022-12-08 18:26:20.0420,-0.9,0.134,0.109,-1.68,-0.49,-2.06
2022-12-08 18:26:20.0520,-0.995,0.094,0.183,-0.79,-0.28,-2.68
2022-12-08 18:26:20.0620,-1.074,0.046,0.235,0.13,0.11,-3.33
2022-12-08 18:26:20.0720,-1.14,0.011,0.229,0.89,0.58,-3.77
2022-12-08 18:26:20.0820,-1.2,-0.017,0.131,1.52,0.92,-3.65
2022-12-08 18:26:20.0920,-1.278,-0.027,-0.048,2.11,1.19,-2.66
2022-12-08 18:26:20.1020,-1.383,-0.023,-0.233,2.88,1.31,-0.93
2022-12-08 18:26:20.1120,-1.442,-0.04,-0.288,3.91,1.26,0.85
2022-12-08 18:26:20.1220,-1.44,-0.081,-0.153,4.5,1.43,1.37
2022-12-08 18:26:20.1320,-1.447,-0.122,0.112,4.47,1.81,0.08
2022-12-08 18:26:20.1420,-1.475,-0.151,0.349,4.52,2.18,-2.42
2022-12-08 18:26:20.1530,-1.508,-0.131,0.483,4.77,2.4,-4.57
2022-12-08 18:26:20.1620,-1.546,-0.079,0.461,5.06,2.13,-5.67
2022-12-08 18:26:20.1720,-1.455,0.039,0.288,5.41,1.54,-5.22
2022-12-08 18:26:20.1830,-1.241,0.174,0.093,4.49,0.31,-3.33
2022-12-08 18:26:20.1920,-1.103,0.204,-0.058,2.39,-1.09,-1.3
2022-12-08 18:26:20.2030,-1.012,0.189,-0.139,1.03,-1.44,0.24
2022-12-08 18:26:20.2130,-0.875,0.256,-0.158,0.13,-1.33,1.04
2022-12-08 18:26:20.2230,-0.808,0.294,-0.211,-1.21,-1.99,1.19
2022-12-08 18:26:20.2330,-0.862,0.308,-0.316,-1.86,-2.33,1.65
2022-12-08 18:26:20.2430,-0.867,0.341,-0.382,-1.32,-2.43,2.6
2022-12-08 18:26:20.2530,-0.865,0.387,-0.356,-1.27,-2.69,3.19
2022-12-08 18:26:20.2630,-0.849,0.417,-0.309,-1.29,-3.1,2.9
2022-12-08 18:26:20.2730,-0.807,0.42,-0.281,-1.44,-3.33,2.43
2022-12-08 18:26:20.2830,-0.805,0.38,-0.281,-1.85,-3.32,2.16
2022-12-08 18:26:20.2930,-0.89,0.326,-0.28,-1.86,-2.88,2.18
2022-12-08 18:26:20.3030,-1.022,0.272,-0.276,-1.03,-2.32,2.21
2022-12-08 18:26:20.3130,-1.183,0.193,-0.269,0.27,-1.76,2.2
2022-12-08 18:26:20.3230,-1.335,0.076,-0.272,1.85,-0.96,2.14
2022-12-08 18:26:20.3330,-1.415,-0.025,-0.27,3.34,0.18,2.13
2022-12-08 18:26:20.3430,-1.427,-0.06,-0.233,4.13,1.17,2.06
2022-12-08 18:26:20.3530,-1.337,-0.056,-0.174,4.25,1.49,1.63
2022-12-08 18:26:20.3630,-1.203,-0.031,-0.12,3.36,1.41,0.99
2022-12-08 18:26:20.3730,-1.083,-0.012,-0.094,2.05,1.12,0.4
2022-12-08 18:26:20.3830,-1.011,0.004,-0.093,0.87,0.89,0.08
2022-12-08 18:26:20.3930,-0.952,0.006,-0.101,0.17,0.69,-0.01
2022-12-08 18:26:20.4030,-0.887,0.02,-0.121,-0.4,0.65,-0.02
2022-12-08 18:26:20.4130,-0.835,0.031,-0.143,-1.03,0.48,0.08
2022-12-08 18:26:20.4230,-0.771,0.046,-0.156,-1.53,0.37,0.18
2022-12-08 18:26:20.4330,-0.701,0.068,-0.161,-2.14,0.21,0.19
2022-12-08 18:26:20.4430,-0.648,0.078,-0.161,-2.81,-0.02,0.11
2022-12-08 18:26:20.4530,-0.608,0.083,-0.16,-3.31,-0.12,-0.02
2022-12-08 18:26:20.4630,-0.58,0.099,-0.167,-3.67,-0.18,-0.16
2022-12-08 18:26:20.4730,-0.562,0.114,-0.165,-3.93,-0.35,-0.24
2022-12-08 18:26:20.4830,-0.567,0.127,-0.169,-4.07,-0.5,-0.4
2022-12-08 18:26:20.4930,-0.593,0.129,-0.159,-3.99,-0.62,-0.49
2022-12-08 18:26:20.5030,-0.638,0.116,-0.15,-3.71,-0.64,-0.7
2022-12-08 18:26:20.5130,-0.698,0.096,-0.142,-3.25,-0.51,-0.89
2022-12-08 18:26:20.5230,-0.763,0.077,-0.134,-2.64,-0.3,-1.06
2022-12-08 18:26:20.5330,-0.828,0.063,-0.123,-1.98,-0.11,-1.21
2022-12-08 18:26:20.5430,-0.858,0.048,-0.124,-1.32,0.05,-1.39
2022-12-08 18:26:20.5530,-0.863,0.038,-0.119,-1.0,0.22,-1.45
2022-12-08 18:26:20.5630,-0.869,0.021,-0.102,-0.93,0.33,-1.57
2022-12-08 18:26:20.5740,-0.864,-0.006,-0.111,-0.85,0.53,-1.8
2022-12-08 18:26:20.5840,-0.86,-0.025,-0.153,-0.88,0.83,-1.78
2022-12-08 18:26:20.5940,-0.87,-0.042,-0.199,-0.9,1.04,-1.43
2022-12-08 18:26:20.6040,-0.903,-0.053,-0.243,-0.78,1.24,-1.03
2022-12-08 18:26:20.6140,-0.938,-0.051,-0.271,-0.44,1.37,-0.65
2022-12-08 18:26:20.6240,-0.98,-0.019,-0.262,-0.07,1.36,-0.42
2022-12-08 18:26:20.6340,-1.021,0.031,-0.234,0.35,1.06,-0.56
2022-12-08 18:26:20.6440,-1.074,0.073,-0.176,0.77,0.58,-0.88
