time,gFx,gFy,gFz,ax,ay,az
2022-12-08 18:23:02.8440,0.05,-0.405,-0.915,-0.11,0.59,-0.03
2022-12-08 18:24:00.9340,0.045,-0.404,-0.897,-0.22,0.49,-0.2
2022-12-08 18:24:00.9420,0.029,-0.397,-0.887,-0.2,0.48,-0.38
2022-12-08 18:24:00.9530,0.017,-0.39,-0.892,-0.07,0.42,-0.48
2022-12-08 18:24:00.9620,0.005,-0.386,-0.908,0.02,0.37,-0.43
2022-12-08 18:24:00.9720,-0.006,-0.38,-0.927,0.13,0.35,-0.29
2022-12-08 18:24:00.9820,-0.013,-0.37,-0.943,0.22,0.31,-0.11
2022-12-08 18:24:00.9920,-0.012,-0.36,-0.949,0.29,0.24,0.05
2022-12-08 18:24:01.0020,-0.001,-0.352,-0.945,0.28,0.16,0.09
2022-12-08 18:24:01.0120,0.012,-0.344,-0.933,0.17,0.09,0.05
2022-12-08 18:24:01.0220,0.015,-0.343,-0.913,0.03,0.02,-0.07
2022-12-08 18:24:01.0320,0.001,-0.348,-0.899,-0.01,0.01,-0.27
2022-12-08 18:24:01.0420,-0.02,-0.355,-0.894,0.12,0.07,-0.41
2022-12-08 18:24:01.0530,-0.032,-0.355,-0.895,0.31,0.14,-0.46
2022-12-08 18:24:01.0630,-0.037,-0.358,-0.898,0.42,0.14,-0.44
2022-12-08 18:24:01.0720,-0.041,-0.364,-0.889,0.46,0.17,-0.42
2022-12-08 18:24:01.0830,-0.043,-0.378,-0.872,0.49,0.24,-0.51
2022-12-08 18:24:01.0930,-0.044,-0.397,-0.852,0.51,0.39,-0.68
2022-12-08 18:24:01.1030,-0.045,-0.417,-0.828,0.52,0.58,-0.89
2022-12-08 18:24:01.1130,-0.038,-0.43,-0.815,0.52,0.8,-1.13
2022-12-08 18:24:01.1230,-0.03,-0.43,-0.82,0.44,0.94,-1.26
2022-12-08 18:24:01.1330,-0.031,-0.425,-0.845,0.34,0.97,-1.22
2022-12-08 18:24:01.1430,-0.037,-0.416,-0.881,0.32,0.94,-0.98
2022-12-08 18:24:01.1530,-0.041,-0.413,-0.921,0.34,0.89,-0.64
2022-12-08 18:24:01.1630,-0.04,-0.412,-0.958,0.35,0.9,-0.26
2022-12-08 18:24:01.1730,-0.048,-0.405,-0.986,0.32,0.92,0.09
2022-12-08 18:24:01.1830,-0.048,-0.408,-0.998,0.38,0.88,0.36
2022-12-08 18:24:01.1930,-0.049,-0.415,-0.993,0.36,0.94,0.46
2022-12-08 18:24:01.2030,-0.049,-0.421,-0.979,0.34,1.03,0.41
2022-12-08 18:24:01.2130,-0.049,-0.427,-0.959,0.33,1.12,0.26
2022-12-08 18:24:01.2230,-0.052,-0.43,-0.933,0.31,1.19,0.06
2022-12-08 18:24:01.2330,-0.046,-0.431,-0.914,0.31,1.24,-0.2
2022-12-08 18:24:01.2430,-0.044,-0.429,-0.899,0.25,1.25,-0.39
2022-12-08 18:24:01.2530,-0.044,-0.424,-0.883,0.21,1.24,-0.54
2022-12-08 18:24:01.2630,-0.042,-0.42,-0.868,0.19,1.21,-0.7
2022-12-08 18:24:01.2730,-0.043,-0.418,-0.853,0.17,1.18,-0.85
2022-12-08 18:24:01.2830,-0.047,-0.414,-0.842,0.16,1.17,-0.99
2022-12-08 18:24:01.2930,-0.049,-0.406,-0.835,0.19,1.14,-1.11
2022-12-08 18:24:01.3030,-0.043,-0.399,-0.825,0.21,1.07,-1.18
2022-12-08 18:24:01.3130,-0.037,-0.39,-0.822,0.14,1.02,-1.28
2022-12-08 18:24:01.3230,-0.032,-0.387,-0.823,0.07,0.95,-1.32
2022-12-08 18:24:01.3330,-0.027,-0.381,-0.832,0.01,0.93,-1.32
2022-12-08 18:24:01.3430,-0.024,-0.374,-0.841,-0.04,0.9,-1.23
2022-12-08 18:24:01.3530,-0.023,-0.373,-0.852,-0.08,0.84,-1.15
2022-12-08 18:24:01.3630,-0.029,-0.371,-0.858,-0.1,0.85,-1.04
2022-12-08 18:24:01.3730,-0.037,-0.372,-0.865,-0.06,0.84,-0.98
2022-12-08 18:24:01.3830,-0.045,-0.374,-0.865,-0.01,0.86,-0.92
2022-12-08 18:24:01.3930,-0.051,-0.376,-0.857,0.05,0.88,-0.92
2022-12-08 18:24:01.4040,-0.054,-0.366,-0.849,0.08,0.89,-0.99
2022-12-08 18:24:01.4140,-0.044,-0.359,-0.838,0.07,0.8,-1.07
2022-12-08 18:24:01.4240,-0.03,-0.36,-0.829,-0.06,0.72,-1.17
2022-12-08 18:24:01.4340,-0.03,-0.367,-0.825,-0.23,0.73,-1.26
2022-12-08 18:24:01.4440,-0.039,-0.372,-0.842,-0.26,0.81,-1.3
2022-12-08 18:24:01.4540,-0.058,-0.37,-0.863,-0.21,0.88,-1.14
2022-12-08 18:24:01.4640,-0.077,-0.378,-0.868,-0.05,0.88,-0.94
2022-12-08 18:24:01.4740,-0.097,-0.34,-0.83,0.1,0.98,-0.9
2022-12-08 18:24:01.4840,-0.071,-0.186,-0.774,0.26,0.65,-1.28
2022-12-08 18:24:01.4940,-0.031,-0.232,-0.84,-0.05,-0.81,-1.83
2022-12-08 18:24:01.5040,-0.11,-0.36,-0.937,-0.49,-0.3,-1.2
2022-12-08 18:24:01.5140,-0.157,-0.367,-0.972,0.25,1.01,-0.26
2022-12-08 18:24:01.5240,-0.145,-0.313,-0.968,0.69,1.14,0.07
2022-12-08 18:24:01.5340,-0.093,-0.254,-0.98,0.55,0.67,0.02
2022-12-08 18:24:01.5440,-0.081,-0.202,-0.936,-0.01,0.16,0.13
2022-12-08 18:24:01.5540,-0.193,-0.276,-0.928,-0.17,-0.25,-0.33
2022-12-08 18:24:01.5640,-0.332,-0.406,-1.008,0.9,0.58,-0.43
2022-12-08 18:24:01.5740,-0.401,-0.425,-1.058,2.25,1.95,0.34
2022-12-08 18:24:01.5840,-0.324,-0.45,-1.098,2.92,2.2,0.81
2022-12-08 18:24:01.5940,-0.153,-0.487,-1.156,2.15,2.42,1.21
2022-12-08 18:24:01.6040,-0.024,-0.436,-1.089,0.46,2.7,1.8
2022-12-08 18:24:01.6140,0.059,-0.25,-0.965,-0.83,2.07,1.17
2022-12-08 18:24:01.6240,0.151,-0.078,-0.85,-1.73,0.09,0.01
2022-12-08 18:24:01.6340,0.18,-0.018,-0.761,-2.77,-1.82,-1.04
2022-12-08 18:24:01.6440,-0.206,-0.264,-1.062,-3.22,-2.69,-1.8
2022-12-08 18:24:01.6540,-0.426,-0.442,-1.033,0.52,-0.66,1.28
2022-12-08 18:24:01.6640,-0.43,-0.525,-0.925,2.77,0.63,1.15
2022-12-08 18:24:01.6740,-0.554,-0.721,-0.859,2.82,1.02,0.28
2022-12-08 18:24:01.6840,-0.681,-0.641,-0.764,3.86,2.59,-0.16
2022-12-08 18:24:01.6940,-0.707,-0.489,-0.645,4.99,1.49,-0.9
2022-12-08 18:24:01.7040,-0.585,-0.393,-0.466,5.2,-0.28,-1.89
2022-12-08 18:24:01.7140,-0.45,-0.244,-0.597,3.96,-1.41,-3.53
2022-12-08 18:24:01.7240,-0.275,-0.165,-0.757,2.71,-2.92,-2.22
2022-12-08 18:24:01.7340,-0.252,-0.16,-0.769,1.18,-3.65,-0.71
2022-12-08 18:24:01.7440,-0.225,-0.274,-0.708,1.24,-3.62,-0.71
2022-12-08 18:24:01.7540,-0.096,-0.379,-0.725,1.32,-2.38,-1.42
2022-12-08 18:24:01.7640,-0.013,-0.423,-0.798,0.36,-1.2,-1.36
2022-12-08 18:24:01.7740,-0.146,-0.37,-0.762,-0.27,-0.64,-0.73
2022-12-08 18:24:01.7840,-0.043,-0.339,-0.615,1.09,-1.06,-1.14
2022-12-08 18:24:01.7940,0.41,-0.447,-0.637,0.06,-1.31,-2.61
2022-12-08 18:24:01.8040,0.515,-0.542,-0.556,-4.47,-0.22,-2.41
2022-12-08 18:24:01.8140,0.581,-0.583,-0.43,-5.68,0.69,-3.19
2022-12-08 18:24:01.8250,0.56,-0.513,-0.323,-6.59,1.07,-4.38
2022-12-08 18:24:01.8340,0.197,-0.231,-0.306,-6.69,0.34,-5.38
2022-12-08 18:24:01.8450,-0.263,0.1,-0.321,-3.5,-2.45,-5.46
2022-12-08 18:24:01.8550,-0.43,0.248,-0.303,0.56,-5.69,-5.23
2022-12-08 18:24:01.8650,-0.425,0.253,-0.388,1.73,-7.12,-5.28
2022-12-08 18:24:01.8750,-0.393,0.221,-0.556,1.19,-7.13,-4.31
2022-12-08 18:24:01.8850,-0.41,0.204,-0.647,0.37,-6.78,-2.48
2022-12-08 18:24:01.8950,-0.465,0.247,-0.625,0.01,-6.6,-1.35
2022-12-08 18:24:01.9050,-0.494,0.335,-0.537,0.02,-6.99,-1.28
2022-12-08 18:24:01.9150,-0.509,0.37,-0.448,-0.24,-7.81,-1.81
2022-12-08 18:24:01.9250,-0.562,0.4,-0.386,-0.6,-8.05,-2.35
2022-12-08 18:24:01.9350,-0.625,0.475,-0.359,-0.57,-8.18,-2.64
2022-12-08 18:24:01.9470,-0.688,0.489,-0.398,-0.4,-8.69,-2.61
2022-12-08 18:24:01.9550,-0.76,0.48,-0.494,-0.18,-8.52,-1.98
2022-12-08 18:24:01.9650,-0.812,0.474,-0.568,0.17,-8.09,-0.8
2022-12-08 18:24:01.9750,-0.873,0.484,-0.59,0.34,-7.64,0.16
2022-12-08 18:24:01.9850,-1.024,0.479,-0.633,0.64,-7.32,0.61
2022-12-08 18:24:01.9950,-1.198,0.437,-0.712,1.83,-6.85,1.27
2022-12-08 18:24:02.0050,-1.316,0.37,-0.787,3.29,-6.01,2.31
2022-12-08 18:24:02.0150,-1.363,0.309,-0.854,4.23,-4.94,3.32
2022-12-08 18:24:02.0250,-1.396,0.25,-0.91,4.51,-3.94,4.25
2022-12-08 18:24:02.0350,-1.426,0.207,-0.903,4.68,-2.97,5.07
2022-12-08 18:24:02.0450,-1.464,0.172,-0.835,4.86,-2.17,5.26
2022-12-08 18:24:02.0550,-1.505,0.121,-0.765,5.15,-1.44,4.81
2022-12-08 18:24:02.0650,-1.533,0.072,-0.715,5.51,-0.54,4.3
2022-12-08 18:24:02.0750,-1.557,0.035,-0.67,5.77,0.32,3.95
2022-12-08 18:24:02.0850,-1.616,-0.015,-0.648,6.01,1.07,3.64
2022-12-08 18:24:02.0950,-1.721,-0.071,-0.647,6.63,1.93,3.51
2022-12-08 18:24:02.1050,-1.75,-0.092,-0.626,7.71,2.82,3.57
2022-12-08 18:24:02.1150,-1.711,-0.116,-0.573,8.07,3.34,3.39
2022-12-08 18:24:02.1250,-1.687,-0.17,-0.539,7.76,3.88,2.9
2022-12-08 18:24:02.1350,-1.723,-0.23,-0.522,7.61,4.68,2.58
2022-12-08 18:24:02.1450,-1.761,-0.248,-0.499,8.06,5.52,2.41
2022-12-08 18:24:02.1550,-1.775,-0.237,-0.473,8.76,6.02,1.86
2022-12-08 18:24:02.1670,-1.761,-0.232,-0.452,8.71,6.15,1.62
2022-12-08 18:24:02.1770,-1.74,-0.214,-0.436,8.71,6.15,1.62
2022-12-08 18:24:02.1850,-1.725,-0.181,-0.421,8.59,6.13,1.42
2022-12-08 18:24:02.1950,-1.713,-0.143,-0.395,8.52,5.93,1.22
2022-12-08 18:24:02.2050,-1.702,-0.085,-0.358,8.48,5.67,0.93
2022-12-08 18:24:02.2150,-1.676,-0.018,-0.319,8.43,5.18,0.51
2022-12-08 18:24:02.2250,-1.644,0.026,-0.277,8.23,4.59,0.1
2022-12-08 18:24:02.2350,-1.627,0.082,-0.247,7.95,4.22,-0.34
2022-12-08 18:24:02.2450,-1.638,0.163,-0.253,7.8,3.7,-0.64
2022-12-08 18:24:02.2560,-1.637,0.252,-0.294,7.92,2.93,-0.58
2022-12-08 18:24:02.2660,-1.602,0.329,-0.355,7.91,2.07,-0.16
2022-12-08 18:24:02.2760,-1.554,0.416,-0.447,7.55,1.31,0.48
2022-12-08 18:24:02.2860,-1.485,0.498,-0.586,7.06,0.46,1.43
2022-12-08 18:24:02.2950,-1.464,0.51,-0.721,6.36,-0.35,2.85
2022-12-08 18:24:02.3060,-1.5,0.505,-0.784,6.12,-0.49,4.24
2022-12-08 18:24:02.3160,-1.532,0.49,-0.773,6.45,-0.48,4.89
2022-12-08 18:24:02.3260,-1.537,0.468,-0.724,6.72,-0.39,4.79
2022-12-08 18:24:02.3360,-1.515,0.423,-0.67,6.72,-0.28,4.3
2022-12-08 18:24:02.3460,-1.503,0.347,-0.647,6.44,0.03,3.77
2022-12-08 18:24:02.3560,-1.511,0.287,-0.626,6.23,0.58,3.54
2022-12-08 18:24:02.3660,-1.441,0.25,-0.425,6.2,0.93,3.32
2022-12-08 18:24:02.3760,-1.311,0.228,0.088,5.4,1.01,1.36
2022-12-08 18:24:02.3860,-1.228,0.199,0.005,3.99,0.94,-3.64
2022-12-08 18:24:02.3960,-1.052,0.163,-0.269,3.06,0.91,-2.76
2022-12-08 18:24:02.4060,-0.96,0.172,-0.385,1.21,0.93,0.0
2022-12-08 18:24:02.4160,-0.874,0.198,-0.56,0.2,0.49,1.21
2022-12-08 18:24:02.4260,-0.743,0.171,-0.632,-0.75,-0.14,3.01
2022-12-08 18:24:02.4360,-0.438,0.153,-0.389,-5.19,-0.46,1.52
2022-12-08 18:24:02.4470,-0.39,0.104,-0.193,-5.19,-0.46,1.52
2022-12-08 18:24:02.4560,-0.329,0.042,-0.127,-5.72,-0.31,-0.29
2022-12-08 18:24:02.4660,-0.366,-0.05,-0.209,-6.36,-0.02,-0.83
2022-12-08 18:24:02.4760,-0.372,-0.155,-0.303,-6.03,0.59,0.08
2022-12-08 18:24:02.4860,-0.257,-0.173,-0.313,-5.99,1.34,1.09
2022-12-08 18:24:02.4960,-0.147,-0.199,-0.356,-7.12,1.24,1.31
2022-12-08 18:24:02.5060,-0.267,-0.354,-0.338,-8.21,1.27,1.84
2022-12-08 18:24:02.5160,-0.354,-0.454,-0.034,-7.04,2.56,1.8
2022-12-08 18:24:02.5260,-0.369,-0.451,0.114,-6.18,3.32,-1.06
2022-12-08 18:24:02.5360,-0.349,-0.272,0.325,-6.19,1.1,-4.32
2022-12-08 18:24:02.5480,-0.265,-0.11,0.405,-6.19,1.1,-4.32
2022-12-08 18:24:02.5560,-0.4,-0.288,0.487,-7.0,-0.69,-4.99
2022-12-08 18:24:02.5660,-0.281,0.441,0.37,-5.65,0.84,-5.68
2022-12-08 18:24:02.5760,-0.238,0.164,-0.004,-6.8,-6.46,-4.44
2022-12-08 18:24:02.5860,-0.3,0.224,-0.02,-7.19,-3.85,-0.69
2022-12-08 18:24:02.5960,-0.717,-0.824,0.275,-6.57,-4.53,-0.47
2022-12-08 18:24:02.6060,-1.156,-1.204,0.393,-2.44,5.57,-3.27
2022-12-08 18:24:02.6160,-1.073,-0.102,0.106,1.94,9.02,-4.32
2022-12-08 18:24:02.6260,-0.798,-0.43,-0.141,1.2,-2.05,-1.38
2022-12-08 18:24:02.6360,-0.779,-0.42,0.08,-1.51,0.59,-0.76
2022-12-08 18:24:02.6480,-0.728,-0.072,0.122,-1.51,0.59,-0.76
2022-12-08 18:24:02.6580,-0.607,-0.198,0.232,-1.93,-3.03,-0.97
2022-12-08 18:24:02.6670,-0.64,-0.661,0.275,-3.03,-2.0,-1.86
2022-12-08 18:24:02.6760,-0.893,-0.29,0.446,-2.6,2.34,-2.17
2022-12-08 18:24:02.6870,-0.979,-0.154,0.626,-0.05,-1.46,-3.84
2022-12-08 18:24:02.6970,-0.881,-0.591,0.312,0.85,-2.9,-5.64
2022-12-08 18:24:02.7070,-0.721,-0.567,0.123,-0.06,1.28,-2.65
2022-12-08 18:24:02.7170,-1.002,-0.375,0.096,-1.56,0.91,-0.87
2022-12-08 18:24:02.7260,-1.023,0.051,0.019,1.26,-1.1,-0.63
2022-12-08 18:24:02.7370,-0.98,0.127,-0.124,1.52,-5.39,0.11
2022-12-08 18:24:02.7470,-0.79,0.056,-0.367,1.18,-6.26,1.46
2022-12-08 18:24:02.7570,-0.725,0.189,-0.459,-0.59,-5.73,3.73
2022-12-08 18:24:02.7670,-0.729,0.222,-0.291,-1.14,-7.18,4.49
2022-12-08 18:24:02.7770,-0.649,-0.031,-0.175,-1.03,-7.6,2.7
2022-12-08 18:24:02.7870,-0.652,-0.273,-0.314,-1.76,-5.2,1.44
2022-12-08 18:24:02.7970,-0.652,-0.405,-0.083,-1.62,-1.68,0.34
2022-12-08 18:24:02.8080,-0.574,-0.327,0.186,-1.62,-1.68,0.34
2022-12-08 18:24:02.8170,-0.57,-0.4,0.219,-2.34,-2.49,-2.41
2022-12-08 18:24:02.8270,-0.55,-0.562,0.233,-2.37,-1.78,-2.84
2022-12-08 18:24:02.8370,-0.365,-0.297,0.302,-2.59,-0.15,-3.09
2022-12-08 18:24:02.8470,-0.319,-0.45,0.301,-4.44,-2.66,-3.86
2022-12-08 18:24:02.8570,-0.331,-0.635,0.208,-4.96,-1.07,-3.9
2022-12-08 18:24:02.8670,-0.372,-0.554,0.082,-4.89,0.82,-3.0
2022-12-08 18:24:02.8770,-0.358,-0.62,-0.179,-4.55,0.12,-1.73
2022-12-08 18:24:02.8870,-0.611,-0.76,-0.288,-4.78,0.89,0.95
2022-12-08 18:24:02.8970,-0.972,-0.721,-0.273,-2.39,2.39,2.2
2022-12-08 18:24:02.9070,-1.245,-0.688,-0.326,1.07,2.11,2.27
2022-12-08 18:24:02.9170,-1.557,-0.649,-0.314,3.72,1.83,2.95
2022-12-08 18:24:02.9270,-1.596,-0.608,-0.16,6.79,1.43,2.93
2022-12-08 18:24:02.9370,-1.633,-0.428,0.119,7.22,0.95,1.46
2022-12-08 18:24:02.9470,-1.667,-0.195,0.128,7.67,-0.95,-1.3
2022-12-08 18:24:02.9570,-1.898,0.23,0.171,8.14,-3.45,-1.47
2022-12-08 18:24:02.9670,-1.607,0.469,0.064,10.62,-7.95,-2.02
2022-12-08 18:24:02.9770,-0.408,0.179,-0.156,8.06,-10.66,-1.13
2022-12-08 18:24:02.9870,-0.572,-0.14,-0.362,-3.41,-8.15,0.88
2022-12-08 18:24:02.9970,-0.858,-0.382,-0.391,-1.52,-5.33,2.79
2022-12-08 18:24:03.0070,-0.954,-0.587,-0.298,1.58,-3.25,3.01
2022-12-08 18:24:03.0170,-1.002,-0.474,-0.299,2.81,-1.51,2.07
2022-12-08 18:24:03.0270,-1.069,-0.552,-0.199,3.57,-2.86,2.08
2022-12-08 18:24:03.0370,-1.111,-0.749,-0.136,4.53,-2.34,1.06
2022-12-08 18:24:03.0470,-0.939,-0.648,-0.037,5.29,-0.64,0.37
2022-12-08 18:24:03.0570,-0.801,-0.96,0.065,3.98,-1.87,-0.73
2022-12-08 18:24:03.0670,-0.725,-1.364,-0.003,2.98,0.99,-1.9
2022-12-08 18:24:03.0780,-0.851,-2.144,-0.27,2.51,4.83,-1.38
2022-12-08 18:24:03.0880,-0.976,-2.725,-0.59,3.93,12.38,1.23
2022-12-08 18:24:03.0970,-0.442,-1.819,-0.398,5.24,18.02,4.48
2022-12-08 18:24:03.1090,-0.277,-1.091,-0.052,0.06,9.09,2.71
2022-12-08 18:24:03.1180,-0.302,-0.753,-0.073,-1.5,1.91,-0.64
2022-12-08 18:24:03.1280,-0.241,-0.555,-0.171,-1.16,-1.44,-0.46
2022-12-08 18:24:03.1380,-0.181,-0.454,-0.132,-1.67,-3.42,0.44
2022-12-08 18:24:03.1480,-0.137,-0.417,-0.079,-2.16,-4.45,-0.02
2022-12-08 18:24:03.1580,-0.124,-0.406,-0.09,-2.5,-4.83,-0.66
2022-12-08 18:24:03.1680,-0.169,-0.433,-0.196,-2.57,-4.95,-0.68
2022-12-08 18:24:03.1780,-0.206,-0.466,-0.22,-2.06,-4.69,0.25
2022-12-08 18:24:03.1880,-0.207,-0.509,-0.141,-1.64,-4.37,0.41
2022-12-08 18:24:03.1980,-0.212,-0.568,-0.15,-1.58,-3.96,-0.42
2022-12-08 18:24:03.2100,-0.201,-0.631,-0.119,-1.48,-3.39,-0.38
2022-12-08 18:24:03.2180,-0.191,-0.69,-0.128,-1.55,-2.77,-0.72
2022-12-08 18:24:03.2300,-0.162,-0.74,-0.079,-1.62,-2.2,-0.66
2022-12-08 18:24:03.2380,-0.126,-0.806,0.067,-1.89,-1.71,-1.18
2022-12-08 18:24:03.2480,-0.162,-0.85,-0.006,-2.22,-1.06,-2.68
2022-12-08 18:24:03.2580,-0.185,-0.881,-0.052,-1.85,-0.62,-2.03
2022-12-08 18:24:03.2680,-0.199,-0.915,-0.108,-1.62,-0.3,-1.65
2022-12-08 18:24:03.2780,-0.215,-0.939,-0.177,-1.32,0.3,-0.53
2022-12-08 18:24:03.2900,-0.209,-0.955,-0.199,-1.32,0.3,-0.53
2022-12-08 18:24:03.2980,-0.202,-0.995,-0.15,-1.44,0.86,-0.87
2022-12-08 18:24:03.3100,-0.229,-1.047,-0.169,-1.44,0.86,-0.87
2022-12-08 18:24:03.3180,-0.279,-1.097,-0.175,-1.17,1.38,-0.74
2022-12-08 18:24:03.3280,-0.346,-1.148,-0.214,-0.65,1.88,-0.72
2022-12-08 18:24:03.3380,-0.39,-1.212,-0.181,0.01,2.37,-0.36
2022-12-08 18:24:03.3480,-0.48,-1.256,-0.187,0.47,3.0,-0.69
2022-12-08 18:24:03.3580,-0.435,-1.287,-0.106,1.39,3.41,-0.62
2022-12-08 18:24:03.3680,-0.395,-1.328,-0.11,1.02,3.69,-1.41
2022-12-08 18:24:03.3780,-0.309,-1.36,-0.114,0.72,4.06,-1.37
2022-12-08 18:24:03.3880,-0.235,-1.371,-0.127,-0.01,4.35,-1.35
2022-12-08 18:24:03.3980,-0.206,-1.389,-0.176,-0.63,4.41,-1.26
2022-12-08 18:24:03.4100,-0.177,-1.404,-0.223,-0.79,4.57,-0.81
2022-12-08 18:24:03.4180,-0.167,-1.392,-0.286,-0.98,4.56,0.2
2022-12-08 18:24:03.4300,-0.166,-1.352,-0.378,-0.98,4.56,0.2
2022-12-08 18:24:03.4380,-0.132,-1.29,-0.426,-0.91,4.15,1.1
2022-12-08 18:24:03.4480,-0.116,-1.216,-0.4,-1.29,2.78,1.35
2022-12-08 18:24:03.4600,-0.113,-1.128,-0.433,-1.29,2.78,1.35
2022-12-08 18:24:03.4680,-0.149,-1.032,-0.476,-1.3,1.9,1.69
2022-12-08 18:24:03.4800,-0.206,-0.932,-0.501,-0.93,0.94,2.15
2022-12-08 18:24:03.4890,-0.244,-0.825,-0.542,-0.37,-0.04,2.42
2022-12-08 18:24:03.4980,-0.27,-0.732,-0.592,0.25,-2.02,3.34
2022-12-08 18:24:03.5110,-0.279,-0.665,-0.631,0.25,-2.02,3.34
2022-12-08 18:24:03.5190,-0.322,-0.649,-0.674,0.35,-2.68,3.74
2022-12-08 18:24:03.5280,-0.374,-0.66,-0.683,0.76,-2.84,4.19
2022-12-08 18:24:03.5390,-0.415,-0.693,-0.656,1.26,-2.74,4.33
2022-12-08 18:24:03.5490,-0.437,-0.761,-0.586,1.65,-2.43,4.13
2022-12-08 18:24:03.5590,-0.445,-0.831,-0.473,1.83,-1.78,3.52
2022-12-08 18:24:03.5690,-0.448,-0.879,-0.306,1.85,-1.09,2.51
2022-12-08 18:24:03.5790,-0.455,-0.911,-0.137,1.81,-0.63,0.97
2022-12-08 18:24:03.5890,-0.461,-0.928,-0.016,1.79,-0.31,-0.58
2022-12-08 18:24:03.5990,-0.472,-0.967,0.066,1.74,0.27,-2.42
2022-12-08 18:24:03.6110,-0.485,-1.01,0.103,1.74,0.27,-2.42
2022-12-08 18:24:03.6190,-0.479,-0.989,0.074,1.77,0.72,-2.74
2022-12-08 18:24:03.6290,-0.426,-0.933,0.017,1.61,0.55,-2.45
2022-12-08 18:24:03.6390,-0.357,-0.932,-0.065,1.0,0.03,-1.91
2022-12-08 18:24:03.6490,-0.287,-0.961,-0.139,0.24,0.05,-1.12
2022-12-08 18:24:03.6590,-0.2,-0.953,-0.177,-0.5,0.36,-0.42
2022-12-08 18:24:03.6690,-0.115,-0.953,-0.173,-1.43,0.31,-0.07
2022-12-08 18:24:03.6790,-0.06,-0.89,-0.154,-2.35,0.35,-0.11
2022-12-08 18:24:03.6890,-0.141,-0.758,-0.12,-2.99,-0.23,-0.3
2022-12-08 18:24:03.6990,-0.314,-0.652,-0.122,-2.3,-1.48,-0.63
2022-12-08 18:24:03.7090,-0.386,-0.587,-0.138,-0.7,-2.48,-0.63
2022-12-08 18:24:03.7190,-0.422,-0.482,-0.151,-0.08,-3.08,-0.49
2022-12-08 18:24:03.7290,-0.444,-0.392,-0.156,0.19,-4.07,-0.38
2022-12-08 18:24:03.7390,-0.435,-0.332,-0.143,0.33,-4.91,-0.34
2022-12-08 18:24:03.7490,-0.439,-0.292,-0.119,0.18,-5.47,-0.49
2022-12-08 18:24:03.7590,-0.46,-0.301,-0.092,0.18,-5.83,-0.75
2022-12-08 18:24:03.7690,-0.485,-0.36,-0.061,0.35,-5.73,-1.04
2022-12-08 18:24:03.7790,-0.474,-0.465,-0.058,0.6,-5.14,-1.37
2022-12-08 18:24:03.7890,-0.414,-0.54,-0.066,0.5,-4.11,-1.42
2022-12-08 18:24:03.7990,-0.379,-0.607,-0.061,-0.39,-2.72,-1.44
2022-12-08 18:24:03.8110,-0.366,-0.689,-0.049,-0.39,-2.72,-1.44
2022-12-08 18:24:03.8190,-0.35,-0.773,-0.031,-0.49,-1.93,-1.58
2022-12-08 18:24:03.8290,-0.348,-0.866,-0.012,-0.6,-1.12,-1.77
2022-12-08 18:24:03.8390,-0.353,-0.974,0.0,-0.58,-0.23,-1.95
2022-12-08 18:24:03.8490,-0.367,-1.093,0.004,-0.5,0.82,-2.06
2022-12-08 18:24:03.8590,-0.386,-1.226,-0.008,-0.34,1.96,-2.07
2022-12-08 18:24:03.8690,-0.404,-1.363,-0.019,-0.13,3.24,-1.91
2022-12-08 18:24:03.8790,-0.402,-1.491,-0.021,0.05,4.58,-1.76
2022-12-08 18:24:03.8890,-0.392,-1.577,-0.031,0.01,5.84,-1.7
2022-12-08 18:24:03.8990,-0.416,-1.546,-0.073,-0.13,6.69,-1.59
2022-12-08 18:24:03.9100,-0.486,-1.414,-0.125,0.02,6.44,-1.18
2022-12-08 18:24:03.9200,-0.605,-1.288,-0.138,0.59,5.2,-0.68
2022-12-08 18:24:03.9290,-0.851,-1.216,-0.076,1.63,4.03,-0.57
2022-12-08 18:24:03.9400,-0.982,-1.217,-0.032,3.93,3.37,-1.18
2022-12-08 18:24:03.9500,-1.059,-1.306,-0.027,5.1,3.43,-1.56
2022-12-08 18:24:03.9600,-1.079,-1.386,-0.002,5.76,4.34,-1.52
2022-12-08 18:24:03.9700,-0.954,-1.426,0.02,5.91,5.13,-1.65
2022-12-08 18:24:03.9800,-0.852,-1.42,0.008,4.66,5.51,-1.74
2022-12-08 18:24:03.9900,-0.828,-1.275,-0.05,3.65,5.44,-1.54
2022-12-08 18:24:04.0000,-0.836,-0.931,-0.11,3.4,4.02,-0.93
2022-12-08 18:24:04.0100,-0.807,-0.48,-0.18,3.46,0.66,-0.36
2022-12-08 18:24:04.0200,-0.717,-0.073,-0.224,3.17,-3.76,0.27
2022-12-08 18:24:04.0300,-0.576,0.163,-0.262,2.31,-7.75,0.66
2022-12-08 18:24:04.0400,-0.476,0.153,-0.318,0.96,-10.08,0.98
2022-12-08 18:24:04.0500,-0.435,0.003,-0.367,0.03,-10.0,1.49
2022-12-08 18:24:04.0600,-0.369,-0.195,-0.401,-0.31,-8.55,1.93
2022-12-08 18:24:04.0700,-0.309,-0.448,-0.424,-0.9,-6.63,2.22
2022-12-08 18:24:04.0800,-0.331,-0.787,-0.432,-1.44,-4.17,2.4
2022-12-08 18:24:04.0900,-0.416,-1.188,-0.409,-1.18,-0.85,2.43
2022-12-08 18:24:04.1000,-0.479,-1.382,-0.396,0.37,4.96,1.97
2022-12-08 18:24:04.1120,-0.495,-1.232,-0.396,0.37,4.96,1.97
2022-12-08 18:24:04.1200,-0.46,-1.065,-0.423,0.6,3.46,1.89
2022-12-08 18:24:04.1300,-0.407,-0.978,-0.456,0.35,1.81,2.06
2022-12-08 18:24:04.1400,-0.369,-0.928,-0.525,-0.07,0.94,2.28
2022-12-08 18:24:04.1500,-0.334,-0.872,-0.6,-0.35,0.43,2.83
2022-12-08 18:24:04.1600,-0.3,-0.84,-0.617,-0.81,-0.47,3.5
2022-12-08 18:24:04.1720,-0.277,-0.817,-0.607,-0.81,-0.47,3.5
2022-12-08 18:24:04.1800,-0.26,-0.808,-0.562,-0.93,-0.71,3.33
2022-12-08 18:24:04.1900,-0.241,-0.804,-0.492,-1.02,-0.82,2.85
2022-12-08 18:24:04.2000,-0.236,-0.789,-0.405,-1.14,-0.89,2.14
2022-12-08 18:24:04.2100,-0.235,-0.773,-0.321,-1.13,-1.05,1.29
2022-12-08 18:24:04.2200,-0.233,-0.764,-0.248,-1.09,-1.23,0.47
2022-12-08 18:24:04.2300,-0.23,-0.739,-0.191,-1.06,-1.34,-0.25
2022-12-08 18:24:04.2400,-0.217,-0.721,-0.133,-1.05,-1.59,-0.82
2022-12-08 18:24:04.2500,-0.207,-0.708,-0.078,-1.13,-1.78,-1.41
2022-12-08 18:24:04.2600,-0.192,-0.686,-0.052,-1.19,-1.91,-1.98
2022-12-08 18:24:04.2700,-0.18,-0.678,-0.041,-1.31,-2.12,-2.28
2022-12-08 18:24:04.2800,-0.171,-0.68,-0.048,-1.4,-2.2,-2.42
2022-12-08 18:24:04.2900,-0.159,-0.687,-0.078,-1.47,-2.18,-2.39
2022-12-08 18:24:04.3000,-0.152,-0.698,-0.119,-1.58,-2.1,-2.14
2022-12-08 18:24:04.3100,-0.152,-0.721,-0.165,-1.64,-1.74,-1.35
2022-12-08 18:24:04.3220,-0.161,-0.752,-0.209,-1.64,-1.74,-1.35
2022-12-08 18:24:04.3300,-0.17,-0.782,-0.244,-1.57,-1.43,-0.94
2022-12-08 18:24:04.3400,-0.182,-0.805,-0.257,-1.5,-1.12,-0.62
2022-12-08 18:24:04.3500,-0.208,-0.826,-0.247,-1.4,-0.89,-0.5
2022-12-08 18:24:04.3610,-0.219,-0.848,-0.224,-1.17,-0.67,-0.6
2022-12-08 18:24:04.3700,-0.211,-0.87,-0.2,-1.09,-0.44,-0.81
2022-12-08 18:24:04.3800,-0.214,-0.884,-0.178,-1.2,-0.23,-1.04
2022-12-08 18:24:04.3900,-0.203,-0.904,-0.169,-1.19,-0.07,-1.26
2022-12-08 18:24:04.4010,-0.214,-0.942,-0.177,-1.21,0.51,-1.28
2022-12-08 18:24:04.4120,-0.259,-0.982,-0.202,-1.21,0.51,-1.28
2022-12-08 18:24:04.4210,-0.337,-1.013,-0.23,-0.79,0.91,-1.05
2022-12-08 18:24:04.4310,-0.401,-1.044,-0.255,-0.04,1.22,-0.78
2022-12-08 18:24:04.4400,-0.442,-1.092,-0.26,0.58,1.53,-0.53
2022-12-08 18:24:04.4510,-0.453,-1.168,-0.244,0.97,2.0,-0.47
2022-12-08 18:24:04.4610,-0.429,-1.249,-0.223,1.07,2.74,-0.61
2022-12-08 18:24:04.4710,-0.378,-1.315,-0.182,0.84,3.52,-0.8
2022-12-08 18:24:04.4810,-0.342,-1.362,-0.123,0.35,4.16,-1.18
2022-12-08 18:24:04.4910,-0.335,-1.387,-0.07,0.02,4.6,-1.73
2022-12-08 18:24:04.5010,-0.364,-1.375,-0.052,0.25,4.71,-2.37
2022-12-08 18:24:04.5130,-0.385,-1.338,-0.123,0.25,4.71,-2.37
2022-12-08 18:24:04.5210,-0.429,-1.32,-0.239,0.46,4.33,-1.63
2022-12-08 18:24:04.5310,-0.486,-1.285,-0.305,0.88,4.14,-0.43
2022-12-08 18:24:04.5410,-0.431,-1.197,-0.31,1.43,3.78,0.26
2022-12-08 18:24:04.5510,-0.304,-1.079,-0.292,0.88,2.91,0.38
2022-12-08 18:24:04.5630,-0.235,-0.978,-0.289,-0.38,1.74,0.27
2022-12-08 18:24:04.5710,-0.229,-0.888,-0.323,-1.07,0.73,0.3
2022-12-08 18:24:04.5810,-0.246,-0.818,-0.387,-1.14,-0.16,0.7
2022-12-08 18:24:04.5910,-0.282,-0.771,-0.463,-0.98,-0.87,1.39
2022-12-08 18:24:04.6010,-0.318,-0.732,-0.536,-0.28,-1.74,2.94
2022-12-08 18:24:04.6130,-0.362,-0.698,-0.601,-0.28,-1.74,2.94
2022-12-08 18:24:04.6210,-0.405,-0.696,-0.653,0.16,-2.07,3.61
2022-12-08 18:24:04.6310,-0.436,-0.708,-0.669,0.59,-2.1,4.15
2022-12-08 18:24:04.6410,-0.47,-0.731,-0.644,0.89,-1.99,4.34
2022-12-08 18:24:04.6530,-0.497,-0.757,-0.586,1.21,-1.77,4.12
2022-12-08 18:24:04.6610,-0.516,-0.778,-0.488,1.45,-1.52,3.58
2022-12-08 18:24:04.6740,-0.53,-0.802,-0.364,1.62,-1.31,2.65
2022-12-08 18:24:04.6810,-0.533,-0.842,-0.239,1.72,-1.06,1.46
2022-12-08 18:24:04.6910,-0.55,-0.906,-0.12,1.72,-0.66,0.25
2022-12-08 18:24:04.7010,-0.602,-0.992,-0.023,1.84,-0.02,-0.89
2022-12-08 18:24:04.7120,-0.694,-1.026,0.034,2.29,0.84,-1.82
2022-12-08 18:24:04.7210,-0.717,-1.006,-0.0,3.15,1.19,-2.35
2022-12-08 18:24:04.7310,-0.584,-0.947,-0.104,3.34,1.0,-1.99
2022-12-08 18:24:04.7410,-0.451,-0.884,-0.206,2.0,0.43,-0.95
2022-12-08 18:24:04.7510,-0.414,-0.832,-0.267,0.66,-0.19,0.07
2022-12-08 18:24:04.7610,-0.397,-0.808,-0.279,0.26,-0.69,0.69
2022-12-08 18:24:04.7710,-0.364,-0.844,-0.263,0.05,-0.9,0.83
2022-12-08 18:24:04.7810,-0.324,-0.867,-0.209,-0.32,-0.54,0.69
2022-12-08 18:24:04.7920,-0.268,-0.83,-0.165,-0.76,-0.29,0.17
2022-12-08 18:24:04.8020,-0.209,-0.797,-0.155,-1.98,-0.93,-0.38
2022-12-08 18:24:04.8140,-0.186,-0.747,-0.137,-1.98,-0.93,-0.38
2022-12-08 18:24:04.8210,-0.18,-0.682,-0.113,-2.25,-1.39,-0.57
2022-12-08 18:24:04.8320,-0.201,-0.603,-0.087,-2.34,-2.02,-0.83
2022-12-08 18:24:04.8420,-0.241,-0.51,-0.074,-2.18,-2.76,-1.1
2022-12-08 18:24:04.8520,-0.293,-0.418,-0.075,-1.83,-3.65,-1.26
2022-12-08 18:24:04.8620,-0.346,-0.36,-0.077,-1.37,-4.52,-1.28
2022-12-08 18:24:04.8720,-0.41,-0.356,-0.086,-0.88,-5.07,-1.28
2022-12-08 18:24:04.8820,-0.455,-0.388,-0.101,-0.28,-5.09,-1.22
2022-12-08 18:24:04.8920,-0.449,-0.46,-0.107,0.16,-4.77,-1.1
2022-12-08 18:24:04.9020,-0.4,-0.553,-0.098,-0.37,-3.15,-1.17
2022-12-08 18:24:04.9130,-0.356,-0.626,-0.084,-0.37,-3.15,-1.17
2022-12-08 18:24:04.9220,-0.348,-0.687,-0.067,-0.78,-2.43,-1.32
2022-12-08 18:24:04.9320,-0.352,-0.736,-0.044,-0.84,-1.84,-1.5
2022-12-08 18:24:04.9420,-0.369,-0.784,-0.025,-0.79,-1.37,-1.73
2022-12-08 18:24:04.9520,-0.375,-0.842,-0.026,-0.61,-0.9,-1.91
2022-12-08 18:24:04.9620,-0.363,-0.912,-0.052,-0.53,-0.36,-1.88
2022-12-08 18:24:04.9720,-0.349,-1.025,-0.078,-0.62,0.32,-1.61
2022-12-08 18:24:04.9820,-0.32,-1.181,-0.089,-0.73,1.41,-1.32
2022-12-08 18:24:04.9920,-0.309,-1.335,-0.092,-0.99,2.93,-1.2
2022-12-08 18:24:05.0020,-0.322,-1.454,-0.12,-0.99,5.62,-0.89
2022-12-08 18:24:05.0140,-0.355,-1.492,-0.15,-0.99,5.62,-0.89
2022-12-08 18:24:05.0220,-0.429,-1.441,-0.123,-0.7,6.01,-0.61
2022-12-08 18:24:05.0320,-0.574,-1.333,-0.069,-0.02,5.52,-0.87
2022-12-08 18:24:05.0420,-0.631,-1.287,-0.025,1.38,4.47,-1.37
2022-12-08 18:24:05.0520,-0.625,-1.36,0.039,1.91,4.01,-1.73
2022-12-08 18:24:05.0620,-0.608,-1.516,0.104,1.81,4.73,-2.25
2022-12-08 18:24:05.0720,-0.667,-1.569,0.157,1.59,6.26,-2.78
2022-12-08 18:24:05.0820,-0.773,-1.454,0.103,2.1,6.8,-3.21
2022-12-08 18:24:05.0920,-0.839,-1.282,-0.01,3.09,5.69,-2.62
2022-12-08 18:24:05.1020,-0.858,-1.079,-0.074,3.68,4.02,-1.48
2022-12-08 18:24:05.1120,-0.868,-0.849,-0.181,3.84,2.05,-0.84
2022-12-08 18:24:05.1220,-0.827,-0.68,-0.325,3.92,-0.2,0.17
2022-12-08 18:24:05.1320,-0.752,-0.47,-0.44,3.51,-1.84,1.54
2022-12-08 18:24:05.1420,-0.66,-0.254,-0.5,2.79,-3.9,2.63
2022-12-08 18:24:05.1520,-0.595,-0.186,-0.478,1.92,-6.03,3.18
2022-12-08 18:24:05.1620,-0.529,-0.228,-0.445,1.34,-6.72,2.92
2022-12-08 18:24:05.1720,-0.471,-0.302,-0.446,0.73,-6.32,2.55
2022-12-08 18:24:05.1820,-0.481,-0.437,-0.456,0.19,-5.59,2.5
2022-12-08 18:24:05.1920,-0.569,-0.644,-0.46,0.31,-4.26,2.52
2022-12-08 18:24:05.2030,-0.646,-0.884,-0.447,2.0,0.11,2.33
2022-12-08 18:24:05.2150,-0.689,-1.14,-0.429,2.0,0.11,2.33
2022-12-08 18:24:05.2230,-0.655,-1.254,-0.441,2.5,2.6,2.09
2022-12-08 18:24:05.2330,-0.497,-1.167,-0.449,2.27,3.68,2.13
2022-12-08 18:24:05.2420,-0.338,-1.044,-0.432,0.86,2.78,2.13
2022-12-08 18:24:05.2530,-0.257,-0.949,-0.396,-0.57,1.54,1.9
2022-12-08 18:24:05.2630,-0.217,-0.901,-0.341,-1.23,0.56,1.5
2022-12-08 18:24:05.2730,-0.196,-0.864,-0.306,-1.49,0.04,0.92
2022-12-08 18:24:05.2830,-0.197,-0.858,-0.275,-1.56,-0.36,0.53
2022-12-08 18:24:05.2930,-0.185,-0.844,-0.259,-1.44,-0.46,0.2
2022-12-08 18:24:05.3050,-0.166,-0.824,-0.263,-1.57,-0.83,0.03
2022-12-08 18:24:05.3150,-0.166,-0.805,-0.275,-1.57,-0.83,0.03
2022-12-08 18:24:05.3230,-0.166,-0.781,-0.273,-1.52,-1.04,0.12
2022-12-08 18:24:05.3330,-0.127,-0.749,-0.281,-1.46,-1.29,0.08
2022-12-08 18:24:05.3430,-0.124,-0.723,-0.26,-1.81,-1.61,0.14
2022-12-08 18:24:05.3530,-0.158,-0.705,-0.212,-1.8,-1.87,-0.08
2022-12-08 18:24:05.3630,-0.191,-0.681,-0.153,-1.44,-2.05,-0.56
2022-12-08 18:24:05.3730,-0.241,-0.651,-0.104,-1.11,-2.3,-1.16
2022-12-08 18:24:05.3830,-0.269,-0.631,-0.09,-0.59,-2.58,-1.65
2022-12-08 18:24:05.3930,-0.25,-0.621,-0.115,-0.3,-2.78,-1.81
2022-12-08 18:24:05.4030,-0.219,-0.618,-0.167,-0.77,-2.89,-1.12
2022-12-08 18:24:05.4150,-0.186,-0.604,-0.218,-0.77,-2.89,-1.12
2022-12-08 18:24:05.4230,-0.171,-0.613,-0.255,-1.1,-3.02,-0.65
2022-12-08 18:24:05.4330,-0.209,-0.709,-0.301,-1.27,-2.92,-0.32
2022-12-08 18:24:05.4430,-0.219,-0.76,-0.318,-0.91,-1.97,0.1
2022-12-08 18:24:05.4530,-0.2,-0.787,-0.294,-0.82,-1.46,0.25
2022-12-08 18:24:05.4630,-0.177,-0.812,-0.26,-1.02,-1.17,0.0
2022-12-08 18:24:05.4730,-0.202,-0.839,-0.204,-1.26,-0.93,-0.35
2022-12-08 18:24:05.4830,-0.225,-0.858,-0.15,-1.05,-0.65,-0.91
2022-12-08 18:24:05.4930,-0.24,-0.879,-0.116,-0.85,-0.44,-1.45
2022-12-08 18:24:05.5030,-0.25,-0.903,-0.116,-0.69,0.03,-1.8
2022-12-08 18:24:05.5150,-0.247,-0.933,-0.131,-0.69,0.03,-1.8
2022-12-08 18:24:05.5230,-0.248,-0.966,-0.145,-0.76,0.35,-1.67
2022-12-08 18:24:05.5330,-0.268,-1.007,-0.167,-0.78,0.69,-1.54
2022-12-08 18:24:05.5430,-0.273,-1.058,-0.205,-0.61,1.09,-1.32
2022-12-08 18:24:05.5530,-0.283,-1.133,-0.245,-0.6,1.6,-0.94
2022-12-08 18:24:05.5630,-0.3,-1.2,-0.277,-0.53,2.34,-0.52
2022-12-08 18:24:05.5730,-0.322,-1.247,-0.278,-0.4,3.01,-0.18
2022-12-08 18:24:05.5830,-0.357,-1.278,-0.244,-0.23,3.48,-0.14
2022-12-08 18:24:05.5930,-0.38,-1.301,-0.187,0.07,3.78,-0.44
2022-12-08 18:24:05.6030,-0.378,-1.298,-0.116,0.19,3.99,-1.62
2022-12-08 18:24:05.6160,-0.36,-1.258,-0.052,0.19,3.99,-1.62
2022-12-08 18:24:05.6240,-0.405,-1.219,-0.016,-0.01,3.59,-2.19
2022-12-08 18:24:05.6340,-0.471,-1.214,-0.037,0.4,3.21,-2.49
2022-12-08 18:24:05.6440,-0.547,-1.211,-0.103,1.02,3.15,-2.21
2022-12-08 18:24:05.6530,-0.599,-1.176,-0.154,1.74,3.1,-1.49
2022-12-08 18:24:05.6640,-0.56,-1.093,-0.185,2.24,2.75,-0.91
2022-12-08 18:24:05.6740,-0.442,-1.01,-0.203,1.85,1.91,-0.52
2022-12-08 18:24:05.6840,-0.354,-0.985,-0.249,0.7,1.07,-0.25
2022-12-08 18:24:05.6940,-0.346,-0.973,-0.307,-0.17,0.8,0.29
2022-12-08 18:24:05.7040,-0.361,-0.944,-0.366,-0.26,0.67,0.95
2022-12-08 18:24:05.7140,-0.383,-0.895,-0.412,-0.14,0.38,1.61
2022-12-08 18:24:05.7240,-0.431,-0.862,-0.461,0.06,-0.1,2.12
2022-12-08 18:24:05.7340,-0.461,-0.844,-0.503,0.49,-0.42,2.63
2022-12-08 18:24:05.7440,-0.468,-0.804,-0.528,0.74,-0.58,3.06
2022-12-08 18:24:05.7540,-0.493,-0.75,-0.547,0.76,-0.96,3.31
2022-12-08 18:24:05.7640,-0.539,-0.712,-0.566,0.95,-1.46,3.49
2022-12-08 18:24:05.7740,-0.574,-0.717,-0.583,1.34,-1.8,3.68
2022-12-08 18:24:05.7840,-0.612,-0.787,-0.559,1.64,-1.74,3.85
2022-12-08 18:24:05.7940,-0.634,-0.88,-0.467,1.97,-1.04,3.65
2022-12-08 18:24:05.8040,-0.374,-0.947,-0.31,2.16,-0.13,2.81
2022-12-08 18:24:05.8160,-0.002,-0.982,-0.154,-0.46,0.55,1.36
2022-12-08 18:24:05.8240,-0.283,-1.074,-0.139,-4.22,0.92,-0.06
2022-12-08 18:24:05.8340,-0.612,-1.115,-0.119,-1.61,1.87,-0.08
2022-12-08 18:24:05.8440,-0.614,-0.984,0.037,1.49,2.31,-0.14
2022-12-08 18:24:05.8540,-0.572,-0.86,0.17,1.38,1.09,-1.53
2022-12-08 18:24:05.8640,-0.557,-0.793,0.199,0.85,-0.08,-2.72
2022-12-08 18:24:05.8740,-0.489,-0.731,0.137,0.58,-0.68,-2.92
2022-12-08 18:24:05.8840,-0.461,-0.672,0.017,-0.2,-1.23,-2.23
2022-12-08 18:24:05.8940,-0.485,-0.641,-0.136,-0.59,-1.76,-0.97
2022-12-08 18:24:05.9040,-0.488,-0.578,-0.197,-0.5,-2.58,1.32
2022-12-08 18:24:05.9160,-0.54,-0.509,-0.215,-0.5,-2.58,1.32
2022-12-08 18:24:05.9240,-0.554,-0.484,-0.246,-0.07,-3.21,1.63
2022-12-08 18:24:05.9340,-0.561,-0.461,-0.178,0.0,-3.42,2.05
2022-12-08 18:24:05.9440,-0.515,-0.443,-0.064,0.01,-3.61,1.48
2022-12-08 18:24:05.9540,-0.452,-0.458,0.044,-0.48,-3.77,0.42
2022-12-08 18:24:05.9640,-0.436,-0.483,0.099,-1.13,-3.59,-0.63
2022-12-08 18:24:05.9740,-0.395,-0.488,0.079,-1.31,-3.33,-1.18
2022-12-08 18:24:05.9840,-0.374,-0.463,0.018,-1.73,-3.26,-1.0
2022-12-08 18:24:05.9940,-0.31,-0.445,-0.031,-1.95,-3.51,-0.41
2022-12-08 18:24:06.0040,-0.301,-0.481,-0.049,-2.67,-3.32,0.24
2022-12-08 18:24:06.0160,-0.353,-0.532,-0.087,-2.67,-3.32,0.24
2022-12-08 18:24:06.0250,-0.382,-0.559,-0.064,-2.16,-2.83,0.63
2022-12-08 18:24:06.0350,-0.468,-0.599,0.032,-1.86,-2.57,0.39
2022-12-08 18:24:06.0440,-0.55,-0.654,0.115,-0.99,-2.2,-0.55
2022-12-08 18:24:06.0550,-0.646,-0.732,0.187,-0.17,-1.68,-1.4
2022-12-08 18:24:06.0650,-0.653,-0.822,0.195,0.81,-0.93,-2.16
2022-12-08 18:24:06.0750,-0.642,-0.921,0.19,0.91,-0.07,-2.29
2022-12-08 18:24:06.0850,-0.648,-1.006,0.247,0.85,0.88,-2.31
2022-12-08 18:24:06.0950,-0.592,-1.053,0.251,0.95,1.69,-2.93
2022-12-08 18:24:06.1050,-0.514,-1.146,0.193,0.45,2.12,-3.03
2022-12-08 18:24:06.1150,-0.443,-1.262,0.139,-0.28,3.02,-2.51
2022-12-08 18:24:06.1250,-0.432,-1.36,0.086,-0.96,4.15,-2.02
2022-12-08 18:24:06.1350,-0.513,-1.395,0.017,-1.06,5.11,-1.54
2022-12-08 18:24:06.1450,-0.639,-1.354,0.013,-0.27,5.46,-0.87
2022-12-08 18:24:06.1550,-0.697,-1.267,0.135,0.97,5.05,-0.82
2022-12-08 18:24:06.1650,-0.712,-1.206,0.333,1.56,4.18,-1.99
2022-12-08 18:24:06.1750,-0.71,-1.25,0.445,1.74,3.56,-3.89
2022-12-08 18:24:06.1850,-0.724,-1.38,0.436,1.74,3.97,-4.97
2022-12-08 18:24:06.1950,-0.699,-1.445,0.289,1.91,5.22,-4.88
2022-12-08 18:24:06.2050,-0.656,-1.388,0.105,1.7,5.84,-3.46
2022-12-08 18:24:06.2150,-0.602,-1.192,0.001,1.31,5.27,-1.69
2022-12-08 18:24:06.2250,-0.558,-0.842,-0.036,0.81,3.32,-0.69
2022-12-08 18:24:06.2350,-0.509,-0.564,-0.203,0.4,-0.11,-0.38
2022-12-08 18:24:06.2450,-0.565,-0.539,-0.49,-0.1,-2.82,1.16
2022-12-08 18:24:06.2550,-0.756,-0.611,-0.702,0.44,-3.04,3.89
2022-12-08 18:24:06.2650,-0.835,-0.555,-0.753,2.29,-2.32,5.89
2022-12-08 18:24:06.2750,-0.809,-0.487,-0.68,3.05,-2.86,6.34
2022-12-08 18:24:06.2850,-0.787,-0.479,-0.524,2.78,-3.51,5.61
2022-12-08 18:24:06.2950,-0.743,-0.509,-0.355,2.57,-3.59,4.08
2022-12-08 18:24:06.3050,-0.68,-0.616,-0.223,2.15,-3.31,2.44
2022-12-08 18:24:06.3150,-0.68,-0.78,-0.129,1.55,-2.27,1.17
2022-12-08 18:24:06.3250,-0.677,-0.948,-0.067,1.57,-0.67,0.25
2022-12-08 18:24:06.3350,-0.647,-1.094,-0.032,1.58,0.95,-0.37
2022-12-08 18:24:06.3450,-0.547,-1.093,-0.093,1.34,2.35,-0.75
2022-12-08 18:24:06.3550,-0.429,-0.977,-0.184,0.42,2.32,-0.24
2022-12-08 18:24:06.3650,-0.362,-0.887,-0.274,-0.67,1.16,0.54
2022-12-08 18:24:06.3750,-0.356,-0.865,-0.319,-1.26,0.25,1.3
2022-12-08 18:24:06.3850,-0.399,-0.965,-0.374,-1.26,0.03,1.64
2022-12-08 18:24:06.3950,-0.387,-1.034,-0.369,-0.79,0.99,2.14
2022-12-08 18:24:06.4050,-0.281,-0.979,-0.269,-0.87,1.65,2.08
2022-12-08 18:24:06.4150,-0.253,-0.893,-0.126,-1.88,1.09,1.1
2022-12-08 18:24:06.4250,-0.319,-0.796,-0.048,-2.14,0.24,-0.3
2022-12-08 18:24:06.4350,-0.361,-0.695,-0.051,-1.49,-0.71,-1.08
2022-12-08 18:24:06.4460,-0.379,-0.62,-0.085,-1.06,-1.71,-1.1
2022-12-08 18:24:06.4550,-0.386,-0.567,-0.129,-0.87,-2.44,-0.8
2022-12-08 18:24:06.4660,-0.387,-0.527,-0.158,-0.78,-2.97,-0.42
2022-12-08 18:24:06.4760,-0.371,-0.473,-0.188,-0.75,-3.36,-0.18
2022-12-08 18:24:06.4850,-0.359,-0.432,-0.218,-0.88,-3.89,0.08
2022-12-08 18:24:06.4950,-0.393,-0.464,-0.239,-0.98,-4.3,0.37
2022-12-08 18:24:06.5060,-0.383,-0.502,-0.234,-0.63,-4.0,0.57
2022-12-08 18:24:06.5160,-0.383,-0.508,-0.198,-0.71,-3.63,0.52
2022-12-08 18:24:06.5260,-0.374,-0.519,-0.13,-0.69,-3.59,0.17
2022-12-08 18:24:06.5360,-0.33,-0.594,-0.059,-0.76,-3.49,-0.51
2022-12-08 18:24:06.5460,-0.309,-0.681,-0.026,-1.16,-2.76,-1.25
2022-12-08 18:24:06.5560,-0.325,-0.782,-0.05,-1.36,-1.9,-1.63
2022-12-08 18:24:06.5660,-0.331,-0.81,-0.077,-1.2,-0.9,-1.45
2022-12-08 18:24:06.5760,-0.338,-0.753,-0.079,-1.14,-0.6,-1.25
2022-12-08 18:24:06.5860,-0.336,-0.751,-0.094,-1.09,-1.15,-1.26
2022-12-08 18:24:06.5960,-0.346,-0.8,-0.084,-1.14,-1.15,-1.14
2022-12-08 18:24:06.6060,-0.334,-0.848,-0.067,-1.06,-0.65,-1.25
2022-12-08 18:24:06.6160,-0.325,-0.907,-0.046,-1.19,-0.17,-1.43
2022-12-08 18:24:06.6260,-0.328,-0.957,-0.013,-1.29,0.42,-1.66
2022-12-08 18:24:06.6360,-0.349,-0.979,0.003,-1.27,0.93,-2.03
2022-12-08 18:24:06.6460,-0.404,-0.986,-0.034,-1.06,1.16,-2.24
2022-12-08 18:24:06.6560,-0.501,-0.994,-0.085,-0.52,1.25,-1.96
2022-12-08 18:24:06.6660,-0.59,-1.026,-0.132,0.44,1.33,-1.53
2022-12-08 18:24:06.6760,-0.651,-1.088,-0.144,1.32,1.67,-1.13
2022-12-08 18:24:06.6860,-0.666,-1.177,-0.122,1.91,2.3,-1.06
2022-12-08 18:24:06.6960,-0.65,-1.247,-0.059,2.06,3.17,-1.31
2022-12-08 18:24:06.7060,-0.633,-1.303,-0.003,1.9,3.86,-1.95
2022-12-08 18:24:06.7160,-0.62,-1.342,-0.028,1.75,4.41,-2.51
2022-12-08 18:24:06.7260,-0.623,-1.345,-0.146,1.64,4.79,-2.27
2022-12-08 18:24:06.7360,-0.607,-1.311,-0.228,1.69,4.81,-1.11
2022-12-08 18:24:06.7460,-0.562,-1.294,-0.294,1.56,4.46,-0.29
2022-12-08 18:24:06.7560,-0.499,-1.298,-0.358,1.15,4.27,0.37
2022-12-08 18:24:06.7660,-0.405,-1.271,-0.372,0.55,4.29,1.02
2022-12-08 18:24:06.7760,-0.308,-1.218,-0.401,-0.36,4.01,1.2
2022-12-08 18:24:06.7860,-0.246,-1.166,-0.473,-1.33,3.48,1.53
2022-12-08 18:24:06.7960,-0.283,-1.089,-0.559,-1.97,2.97,2.28
2022-12-08 18:24:06.8060,-0.348,-0.996,-0.628,-1.64,2.22,3.17
2022-12-08 18:24:06.8160,-0.382,-0.895,-0.657,-1.04,1.32,3.89
2022-12-08 18:24:06.8260,-0.383,-0.812,-0.646,-0.75,0.35,4.2
2022-12-08 18:24:06.8360,-0.408,-0.699,-0.687,-0.77,-0.46,4.12
2022-12-08 18:24:06.8460,-0.478,-0.694,-0.661,-0.56,-1.56,4.57
2022-12-08 18:24:06.8560,-0.449,-0.697,-0.556,0.11,-1.61,4.36
2022-12-08 18:24:06.8660,-0.407,-0.724,-0.413,-0.21,-1.58,3.37
2022-12-08 18:24:06.8770,-0.418,-0.809,-0.259,-0.64,-1.31,2.0
2022-12-08 18:24:06.8860,-0.479,-0.907,-0.117,-0.55,-0.47,0.5
2022-12-08 18:24:06.8970,-0.598,-0.953,-0.011,0.01,0.52,-0.88
2022-12-08 18:24:06.9060,-0.751,-0.966,-0.012,1.14,0.99,-1.93
2022-12-08 18:24:06.9170,-0.842,-0.923,-0.083,2.6,1.14,-1.94
2022-12-08 18:24:06.9270,-0.766,-0.853,-0.17,3.46,0.75,-1.28
2022-12-08 18:24:06.9370,-0.651,-0.784,-0.246,2.67,0.11,-0.47
2022-12-08 18:24:06.9470,-0.565,-0.733,-0.3,1.5,-0.54,0.22
2022-12-08 18:24:06.9570,-0.474,-0.708,-0.314,0.61,-1.0,0.71
2022-12-08 18:24:06.9670,-0.394,-0.682,-0.274,-0.32,-1.22,0.81
2022-12-08 18:24:06.9770,-0.367,-0.677,-0.227,-1.13,-1.44,0.37
2022-12-08 18:24:06.9870,-0.377,-0.672,-0.181,-1.45,-1.45,-0.11
2022-12-08 18:24:06.9970,-0.374,-0.677,-0.122,-1.4,-1.45,-0.59
2022-12-08 18:24:07.0070,-0.354,-0.661,-0.12,-1.48,-1.37,-1.2
2022-12-08 18:24:07.0170,-0.361,-0.585,-0.129,-1.73,-1.48,-1.25
2022-12-08 18:24:07.0270,-0.346,-0.509,-0.13,-1.72,-2.17,-1.21
2022-12-08 18:24:07.0370,-0.32,-0.437,-0.149,-1.92,-2.88,-1.24
2022-12-08 18:24:07.0470,-0.321,-0.38,-0.179,-2.21,-3.53,-1.1
2022-12-08 18:24:07.0570,-0.33,-0.33,-0.216,-2.24,-4.05,-0.86
2022-12-08 18:24:07.0670,-0.346,-0.293,-0.261,-2.19,-4.5,-0.55
2022-12-08 18:24:07.0770,-0.358,-0.282,-0.293,-2.05,-4.83,-0.16
2022-12-08 18:24:07.0870,-0.367,-0.302,-0.294,-1.94,-4.91,0.11
2022-12-08 18:24:07.0970,-0.38,-0.346,-0.256,-1.86,-4.7,0.08
2022-12-08 18:24:07.1070,-0.385,-0.4,-0.2,-1.73,-4.26,-0.33
2022-12-08 18:24:07.1170,-0.409,-0.458,-0.143,-1.67,-3.73,-0.91
2022-12-08 18:24:07.1270,-0.437,-0.513,-0.102,-1.42,-3.15,-1.5
2022-12-08 18:24:07.1370,-0.493,-0.593,-0.095,-1.13,-2.61,-1.93
2022-12-08 18:24:07.1470,-0.532,-0.679,-0.079,-0.56,-1.83,-2.03
2022-12-08 18:24:07.1570,-0.604,-0.784,-0.063,0.54,0.04,-2.34
2022-12-08 18:24:07.1690,-0.663,-0.884,-0.068,0.54,0.04,-2.34
2022-12-08 18:24:07.1770,-0.69,-0.972,-0.055,1.12,1.0,-2.27
2022-12-08 18:24:07.1870,-0.699,-1.051,-0.08,1.37,1.86,-2.35
2022-12-08 18:24:07.1970,-0.704,-1.14,-0.143,1.45,2.61,-2.05
2022-12-08 18:24:07.2070,-0.726,-1.251,-0.2,1.49,3.47,-1.38
2022-12-08 18:24:07.2170,-0.762,-1.319,-0.221,1.7,4.56,-0.78
2022-12-08 18:24:07.2270,-0.785,-1.287,-0.212,2.05,5.22,-0.54
2022-12-08 18:24:07.2370,-0.821,-1.231,-0.197,2.27,4.91,-0.62
2022-12-08 18:24:07.2470,-0.882,-1.22,-0.148,2.63,4.35,-0.75
2022-12-08 18:24:07.2570,-0.945,-1.273,-0.054,3.23,4.22,-1.19
2022-12-08 18:24:07.2670,-1.036,-1.4,0.009,3.87,4.7,-2.03
2022-12-08 18:24:07.2770,-1.104,-1.586,0.042,4.79,5.89,-2.55
2022-12-08 18:24:07.2870,-1.059,-1.679,0.032,5.51,7.65,-2.79
2022-12-08 18:24:07.2970,-0.876,-1.514,-0.037,5.16,8.5,-2.65
2022-12-08 18:24:07.3070,-0.797,-1.106,-0.16,3.45,6.83,-1.98
2022-12-08 18:24:07.3180,-0.735,-0.69,-0.252,2.76,2.78,-0.82
2022-12-08 18:24:07.3280,-0.604,-0.431,-0.353,2.24,-1.34,0.01
2022-12-08 18:24:07.3380,-0.453,-0.317,-0.523,1.04,-3.9,0.9
2022-12-08 18:24:07.3480,-0.412,-0.248,-0.75,-0.37,-5.02,2.47
2022-12-08 18:24:07.3580,-0.489,-0.19,-0.901,-0.74,-5.7,4.63
2022-12-08 18:24:07.3680,-0.551,-0.233,-0.894,0.04,-6.27,6.08
2022-12-08 18:24:07.3780,-0.545,-0.372,-0.784,0.68,-5.87,6.02
2022-12-08 18:24:07.3880,-0.523,-0.468,-0.65,0.65,-4.53,4.98
2022-12-08 18:24:07.3980,-0.495,-0.605,-0.522,0.46,-3.63,3.72
2022-12-08 18:24:07.4080,-0.492,-0.83,-0.387,0.21,-2.33,2.55
2022-12-08 18:24:07.4180,-0.471,-1.038,-0.224,0.22,-0.17,1.31
2022-12-08 18:24:07.4280,-0.421,-1.147,-0.121,0.06,1.84,-0.23
2022-12-08 18:24:07.4380,-0.362,-1.083,-0.121,-0.38,2.87,-1.23
2022-12-08 18:24:07.4480,-0.262,-0.904,-0.169,-0.9,2.22,-1.27
2022-12-08 18:24:07.4580,-0.113,-0.725,-0.247,-1.81,0.46,-0.89
2022-12-08 18:24:07.4680,0.0,-0.643,-0.411,-3.22,-1.3,-0.22
2022-12-08 18:24:07.4780,0.025,-0.721,-0.592,-4.31,-2.09,1.33
2022-12-08 18:24:07.4880,-0.119,-0.8,-0.617,-4.58,-1.31,3.08
2022-12-08 18:24:07.4980,-0.321,-0.829,-0.574,-3.22,-0.51,3.36
2022-12-08 18:24:07.5080,-0.457,-0.901,-0.495,-1.31,-0.21,3.01
2022-12-08 18:24:07.5180,-0.533,-0.974,-0.315,-0.05,0.52,2.3
2022-12-08 18:24:07.5280,-0.525,-0.978,-0.121,0.65,1.23,0.59
2022-12-08 18:24:07.5380,-0.456,-0.909,0.034,0.56,1.28,-1.28
2022-12-08 18:24:07.5480,-0.369,-0.8,0.118,-0.12,0.6,-2.8
2022-12-08 18:24:07.5580,-0.3,-0.676,0.118,-0.98,-0.46,-3.65
2022-12-08 18:24:07.5680,-0.258,-0.585,0.049,-1.66,-1.66,-3.7
2022-12-08 18:24:07.5780,-0.278,-0.491,-0.061,-2.09,-2.52,-3.09
2022-12-08 18:24:07.5880,-0.327,-0.445,-0.17,-1.89,-3.42,-2.08
2022-12-08 18:24:07.5980,-0.339,-0.463,-0.25,-1.42,-3.84,-1.08
2022-12-08 18:24:07.6080,-0.332,-0.481,-0.293,-1.32,-3.64,-0.37
2022-12-08 18:24:07.6180,-0.321,-0.488,-0.277,-1.39,-3.44,0.0
2022-12-08 18:24:07.6280,-0.318,-0.518,-0.248,-1.51,-3.34,-0.21
2022-12-08 18:24:07.6380,-0.317,-0.565,-0.219,-1.56,-3.02,-0.53
2022-12-08 18:24:07.6480,-0.304,-0.608,-0.193,-1.59,-2.54,-0.86
2022-12-08 18:24:07.6580,-0.296,-0.642,-0.182,-1.73,-2.08,-1.16
2022-12-08 18:24:07.6680,-0.31,-0.678,-0.171,-1.83,-1.72,-1.33
2022-12-08 18:24:07.6780,-0.325,-0.715,-0.143,-1.71,-1.34,-1.49
2022-12-08 18:24:07.6880,-0.346,-0.765,-0.138,-1.59,-0.94,-1.82
2022-12-08 18:24:07.6980,-0.384,-0.825,-0.155,-1.41,-0.4,-1.92
2022-12-08 18:24:07.7080,-0.438,-0.869,-0.182,-1.07,0.23,-1.81
2022-12-08 18:24:07.7180,-0.48,-0.903,-0.219,-0.57,0.68,-1.58
2022-12-08 18:24:07.7280,-0.534,-0.945,-0.248,-0.18,1.04,-1.24
2022-12-08 18:24:07.7390,-0.595,-0.973,-0.247,0.33,1.48,-0.98
2022-12-08 18:24:07.7490,-0.677,-1.012,-0.252,0.91,1.78,-1.0
2022-12-08 18:24:07.7590,-0.764,-1.09,-0.244,1.69,2.17,-0.95
2022-12-08 18:24:07.7690,-0.786,-1.171,-0.206,2.53,2.94,-1.02
2022-12-08 18:24:07.7780,-0.791,-1.255,-0.155,2.73,3.74,-1.38
2022-12-08 18:24:07.7890,-0.787,-1.347,-0.164,2.77,4.56,-1.87
2022-12-08 18:24:07.7990,-0.738,-1.416,-0.278,2.74,5.46,-1.75
2022-12-08 18:24:07.8080,-0.665,-1.428,-0.396,2.25,6.12,-0.6
2022-12-08 18:24:07.8180,-0.592,-1.37,-0.448,1.51,6.22,0.61
2022-12-08 18:24:07.8280,-0.568,-1.332,-0.496,0.78,5.65,1.17
2022-12-08 18:24:07.8390,-0.586,-1.255,-0.525,0.51,5.27,1.72
2022-12-08 18:24:07.8490,-0.581,-1.175,-0.519,0.63,4.51,2.08
2022-12-08 18:24:07.8590,-0.543,-1.139,-0.528,0.53,3.74,2.1
2022-12-08 18:24:07.8690,-0.556,-1.11,-0.576,0.09,3.4,2.27
2022-12-08 18:24:07.8790,-0.698,-1.02,-0.522,0.17,3.12,2.81
2022-12-08 18:24:07.8890,-0.594,-0.857,-0.485,1.53,2.24,2.34
2022-12-08 18:24:07.8990,-0.367,-0.712,-0.74,0.48,0.65,2.01
2022-12-08 18:24:07.9090,-0.503,-0.54,-0.931,-1.79,-0.75,4.53
2022-12-08 18:24:07.9190,-0.686,-0.435,-0.819,-0.47,-2.43,6.41
2022-12-08 18:24:07.9290,-0.665,-0.599,-0.751,1.31,-3.45,5.32
2022-12-08 18:24:07.9390,-0.652,-0.746,-0.673,1.08,-1.84,4.68
2022-12-08 18:24:07.9490,-0.684,-0.793,-0.555,0.93,-0.39,3.94
2022-12-08 18:24:07.9590,-0.778,-0.821,-0.358,1.23,0.07,2.82
2022-12-08 18:24:07.9690,-0.807,-0.812,-0.141,2.13,0.35,0.92
2022-12-08 18:24:07.9790,-0.796,-0.839,0.007,2.39,0.27,-1.2
2022-12-08 18:24:07.9890,-0.764,-0.844,0.019,2.26,0.55,-2.66
2022-12-08 18:24:07.9990,-0.727,-0.83,-0.141,1.92,0.62,-2.8
2022-12-08 18:24:08.0090,-0.673,-0.826,-0.297,1.54,0.52,-1.25
2022-12-08 18:24:08.0190,-0.62,-0.828,-0.309,0.98,0.5,0.27
2022-12-08 18:24:08.0290,-0.568,-0.851,-0.248,0.43,0.54,0.39
2022-12-08 18:24:08.0390,-0.517,-0.872,-0.164,-0.12,0.78,-0.18
2022-12-08 18:24:08.0490,-0.502,-0.832,-0.115,-0.66,1.01,-0.95
2022-12-08 18:24:08.0590,-0.506,-0.748,-0.114,-0.88,0.65,-1.4
2022-12-08 18:24:08.0690,-0.509,-0.661,-0.144,-0.89,-0.14,-1.38
2022-12-08 18:24:08.0790,-0.485,-0.558,-0.205,-0.92,-0.95,-1.07
2022-12-08 18:24:08.0890,-0.443,-0.46,-0.253,-1.19,-1.93,-0.47
2022-12-08 18:24:08.0990,-0.388,-0.384,-0.256,-1.64,-2.86,-0.03
2022-12-08 18:24:08.1090,-0.355,-0.307,-0.242,-2.21,-3.57,-0.03
2022-12-08 18:24:08.1190,-0.34,-0.252,-0.226,-2.56,-4.28,-0.21
2022-12-08 18:24:08.1290,-0.334,-0.227,-0.226,-2.73,-4.79,-0.41
2022-12-08 18:24:08.1390,-0.338,-0.217,-0.217,-2.81,-4.99,-0.47
2022-12-08 18:24:08.1490,-0.347,-0.219,-0.195,-2.79,-5.06,-0.59
2022-12-08 18:24:08.1590,-0.362,-0.236,-0.177,-2.72,-5.01,-0.83
2022-12-08 18:24:08.1700,-0.387,-0.27,-0.166,-2.58,-4.83,-1.04
2022-12-08 18:24:08.1800,-0.422,-0.33,-0.16,-2.35,-4.47,-1.16
2022-12-08 18:24:08.1900,-0.46,-0.414,-0.153,-2.02,-3.87,-1.24
2022-12-08 18:24:08.2000,-0.501,-0.517,-0.139,-1.66,-3.05,-1.31
2022-12-08 18:24:08.2100,-0.548,-0.638,-0.119,-1.26,-2.02,-1.45
2022-12-08 18:24:08.2220,-0.607,-0.769,-0.116,-0.81,-0.84,-1.62
2022-12-08 18:24:08.2300,-0.684,-0.907,-0.123,-0.23,0.44,-1.63
2022-12-08 18:24:08.2400,-0.771,-1.035,-0.125,0.52,1.79,-1.52
2022-12-08 18:24:08.2500,-0.844,-1.116,-0.098,1.36,3.02,-1.44
2022-12-08 18:24:08.2600,-0.895,-1.148,-0.045,2.09,3.79,-1.64
2022-12-08 18:24:08.2700,-0.886,-1.166,-0.016,2.61,4.06,-2.1
2022-12-08 18:24:08.2800,-0.827,-1.126,-0.052,2.54,4.2,-2.34
2022-12-08 18:24:08.2900,-0.798,-1.123,-0.139,1.99,3.79,-1.97
2022-12-08 18:24:08.3000,-0.804,-1.163,-0.241,1.82,4.11,-0.16
2022-12-08 18:24:08.3110,-0.87,-1.287,-0.304,1.82,4.11,-0.16
2022-12-08 18:24:08.3200,-1.052,-1.524,-0.327,2.51,5.31,0.41
2022-12-08 18:24:08.3300,-1.207,-1.724,-0.306,4.35,7.62,0.57
2022-12-08 18:24:08.3400,-1.32,-1.768,-0.231,5.95,9.55,0.27
2022-12-08 18:24:08.3500,-1.285,-1.549,-0.19,7.17,9.95,-0.6
2022-12-08 18:24:08.3600,-0.948,-0.987,-0.224,6.97,7.76,-1.19
2022-12-08 18:24:08.3700,-0.522,-0.466,-0.385,3.84,2.19,-1.03
2022-12-08 18:24:08.3800,-0.336,-0.133,-0.595,-0.23,-2.96,0.45
2022-12-08 18:24:08.3900,-0.235,0.169,-0.72,-1.98,-6.28,2.5
2022-12-08 18:24:08.4000,-0.233,0.297,-0.711,-2.94,-9.27,3.78
2022-12-08 18:24:08.4100,-0.362,0.048,-0.576,-2.97,-10.57,3.79
2022-12-08 18:24:08.4200,-0.516,-0.233,-0.39,-1.73,-8.15,2.57
2022-12-08 18:24:08.4300,-0.784,-0.577,-0.279,-0.26,-5.4,0.83
2022-12-08 18:24:08.4400,-0.917,-0.855,-0.237,2.36,-2.04,-0.22
2022-12-08 18:24:08.4500,-0.893,-0.95,-0.239,3.66,0.68,-0.63
2022-12-08 18:24:08.4600,-0.765,-0.85,-0.324,3.46,1.62,-0.66
2022-12-08 18:24:08.4700,-0.613,-0.713,-0.45,2.24,0.64,0.11
2022-12-08 18:24:08.4800,-0.488,-0.632,-0.561,0.78,-0.7,1.28
2022-12-08 18:24:08.4900,-0.409,-0.616,-0.605,-0.42,-1.48,2.32
2022-12-08 18:24:08.5000,-0.347,-0.599,-0.613,-1.2,-1.64,2.74
2022-12-08 18:24:08.5100,-0.357,-0.641,-0.601,-1.82,-1.81,2.83
2022-12-08 18:24:08.5200,-0.392,-0.664,-0.57,-1.73,-1.4,2.74
2022-12-08 18:24:08.5300,-0.419,-0.705,-0.521,-1.41,-1.16,2.45
2022-12-08 18:24:08.5400,-0.437,-0.757,-0.476,-1.17,-0.74,1.97
2022-12-08 18:24:08.5510,-0.458,-0.807,-0.424,-0.99,-0.22,1.5
2022-12-08 18:24:08.5600,-0.465,-0.832,-0.407,-0.79,0.29,0.95
2022-12-08 18:24:08.5700,-0.439,-0.824,-0.391,-0.72,0.56,0.73
2022-12-08 18:24:08.5810,-0.422,-0.807,-0.376,-0.96,0.5,0.5
2022-12-08 18:24:08.5910,-0.413,-0.796,-0.378,-1.13,0.36,0.29
2022-12-08 18:24:08.6010,-0.42,-0.803,-0.406,-1.22,0.28,0.25
2022-12-08 18:24:08.6110,-0.432,-0.796,-0.418,-1.16,0.38,0.49
2022-12-08 18:24:08.6210,-0.43,-0.772,-0.372,-1.05,0.33,0.56
2022-12-08 18:24:08.6310,-0.44,-0.729,-0.308,-1.08,0.11,0.09
2022-12-08 18:24:08.6410,-0.436,-0.672,-0.237,-0.98,-0.31,-0.55
2022-12-08 18:24:08.6510,-0.397,-0.608,-0.175,-1.03,-0.86,-1.26
2022-12-08 18:24:08.6610,-0.356,-0.508,-0.116,-1.4,-1.48,-1.87
2022-12-08 18:24:08.6710,-0.328,-0.415,-0.073,-1.82,-2.46,-2.44
2022-12-08 18:24:08.6810,-0.305,-0.349,-0.069,-2.1,-3.36,-2.86
2022-12-08 18:24:08.6910,-0.291,-0.358,-0.108,-2.35,-4.0,-2.9
2022-12-08 18:24:08.7010,-0.283,-0.345,-0.151,-2.52,-3.89,-2.51
2022-12-08 18:24:08.7110,-0.282,-0.325,-0.21,-2.63,-3.99,-2.09
2022-12-08 18:24:08.7210,-0.291,-0.377,-0.268,-2.67,-4.16,-1.52
2022-12-08 18:24:08.7310,-0.284,-0.425,-0.296,-2.61,-3.62,-0.96
2022-12-08 18:24:08.7410,-0.291,-0.461,-0.29,-2.71,-3.13,-0.69
2022-12-08 18:24:08.7510,-0.318,-0.52,-0.282,-2.68,-2.74,-0.76
2022-12-08 18:24:08.7610,-0.356,-0.597,-0.252,-2.45,-2.13,-0.86
2022-12-08 18:24:08.7710,-0.397,-0.67,-0.2,-2.1,-1.35,-1.16
2022-12-08 18:24:08.7810,-0.443,-0.765,-0.14,-1.73,-0.6,-1.69
2022-12-08 18:24:08.7910,-0.489,-0.867,-0.069,-1.31,0.36,-2.29
2022-12-08 18:24:08.8010,-0.54,-0.94,-0.015,-0.9,1.39,-2.99
2022-12-08 18:24:08.8110,-0.599,-0.998,-0.055,-0.44,2.15,-3.53
2022-12-08 18:24:08.8210,-0.655,-1.042,-0.244,0.11,2.76,-3.15
2022-12-08 18:24:08.8310,-0.68,-1.072,-0.424,0.63,3.23,-1.34
2022-12-08 18:24:08.8410,-0.696,-1.08,-0.535,0.88,3.55,0.39
2022-12-08 18:24:08.8510,-0.714,-1.068,-0.58,1.05,3.64,1.42
2022-12-08 18:24:08.8610,-0.73,-1.039,-0.539,1.26,3.52,1.82
2022-12-08 18:24:08.8710,-0.727,-1.029,-0.43,1.46,3.22,1.38
2022-12-08 18:24:08.8810,-0.727,-1.056,-0.302,1.45,3.11,0.3
2022-12-08 18:24:08.8910,-0.739,-1.113,-0.259,1.48,3.36,-0.97
2022-12-08 18:24:08.9010,-0.75,-1.183,-0.36,1.62,3.9,-1.37
2022-12-08 18:24:08.9110,-0.744,-1.203,-0.467,1.75,4.55,-0.37
2022-12-08 18:24:08.9210,-0.704,-1.158,-0.494,1.7,4.72,0.7
2022-12-08 18:24:08.9310,-0.65,-1.117,-0.49,1.33,4.27,0.98
2022-12-08 18:24:08.9410,-0.624,-1.097,-0.494,0.8,3.84,0.98
2022-12-08 18:24:08.9510,-0.631,-1.069,-0.473,0.54,3.63,1.06
2022-12-08 18:24:08.9610,-0.627,-1.006,-0.452,0.59,3.34,0.92
2022-12-08 18:24:08.9710,-0.608,-0.947,-0.48,0.52,2.7,0.77
2022-12-08 18:24:08.9810,-0.589,-0.87,-0.538,0.32,2.11,1.1
2022-12-08 18:24:08.9910,-0.573,-0.766,-0.612,0.11,1.36,1.7
2022-12-08 18:24:09.0010,-0.562,-0.669,-0.664,-0.06,0.34,2.45
2022-12-08 18:24:09.0110,-0.557,-0.583,-0.696,-0.19,-0.61,2.98
2022-12-08 18:24:09.0210,-0.571,-0.508,-0.726,-0.24,-1.45,3.3
2022-12-08 18:24:09.0310,-0.598,-0.462,-0.764,-0.11,-2.18,3.59
2022-12-08 18:24:09.0420,-0.623,-0.453,-0.788,0.16,-2.63,3.96
2022-12-08 18:24:09.0520,-0.64,-0.472,-0.773,0.41,-2.73,4.2
2022-12-08 18:24:09.0610,-0.662,-0.504,-0.697,0.59,-2.55,4.04
2022-12-08 18:24:09.0720,-0.692,-0.52,-0.558,0.82,-2.24,3.29
2022-12-08 18:24:09.0820,-0.74,-0.534,-0.401,1.13,-2.1,1.93
2022-12-08 18:24:09.0920,-0.786,-0.568,-0.271,1.6,-1.96,0.4
2022-12-08 18:24:09.1020,-0.802,-0.612,-0.191,2.05,-1.63,-0.87
2022-12-08 18:24:09.1120,-0.787,-0.655,-0.18,2.2,-1.2,-1.65
2022-12-08 18:24:09.1220,-0.718,-0.666,-0.216,2.05,-0.78,-1.75
2022-12-08 18:24:09.1320,-0.67,-0.671,-0.253,1.36,-0.67,-1.38
2022-12-08 18:24:09.1420,-0.631,-0.697,-0.266,0.88,-0.62,-0.99
2022-12-08 18:24:09.1520,-0.592,-0.727,-0.263,0.47,-0.36,-0.84
2022-12-08 18:24:09.1620,-0.558,-0.737,-0.263,0.07,-0.06,-0.83
2022-12-08 18:24:09.1720,-0.523,-0.714,-0.257,-0.29,0.04,-0.8
2022-12-08 18:24:09.1820,-0.492,-0.669,-0.254,-0.64,-0.18,-0.84
2022-12-08 18:24:09.1920,-0.471,-0.638,-0.271,-0.97,-0.63,-0.86
2022-12-08 18:24:09.2020,-0.452,-0.608,-0.292,-1.18,-0.92,-0.69
2022-12-08 18:24:09.2120,-0.428,-0.564,-0.298,-1.37,-1.21,-0.48
2022-12-08 18:24:09.2220,-0.405,-0.52,-0.306,-1.6,-1.64,-0.43
2022-12-08 18:24:09.2320,-0.385,-0.48,-0.327,-1.82,-2.07,-0.38
2022-12-08 18:24:09.2420,-0.36,-0.418,-0.323,-2.02,-2.45,-0.19
2022-12-08 18:24:09.2520,-0.344,-0.373,-0.33,-2.24,-3.06,-0.26
2022-12-08 18:24:09.2620,-0.347,-0.351,-0.354,-2.4,-3.49,-0.22
2022-12-08 18:24:09.2720,-0.373,-0.354,-0.369,-2.36,-3.7,-0.02
2022-12-08 18:24:09.2820,-0.409,-0.372,-0.354,-2.11,-3.66,0.11
2022-12-08 18:24:09.2920,-0.447,-0.391,-0.313,-1.75,-3.48,-0.04
2022-12-08 18:24:09.3020,-0.481,-0.417,-0.26,-1.38,-3.29,-0.45
2022-12-08 18:24:09.3120,-0.506,-0.444,-0.219,-1.04,-3.05,-0.97
2022-12-08 18:24:09.3220,-0.528,-0.482,-0.19,-0.78,-2.78,-1.37
2022-12-08 18:24:09.3320,-0.544,-0.523,-0.179,-0.56,-2.42,-1.65
2022-12-08 18:24:09.3420,-0.546,-0.558,-0.161,-0.39,-2.04,-1.75
2022-12-08 18:24:09.3520,-0.561,-0.613,-0.141,-0.35,-1.71,-1.92
2022-12-08 18:24:09.3620,-0.586,-0.685,-0.106,-0.21,-1.18,-2.08
2022-12-08 18:24:09.3720,-0.614,-0.756,-0.06,0.04,-0.5,-2.37
2022-12-08 18:24:09.3820,-0.652,-0.825,-0.033,0.31,0.18,-2.77
2022-12-08 18:24:09.3920,-0.684,-0.904,-0.03,0.67,0.83,-2.98
2022-12-08 18:24:09.4020,-0.713,-0.984,-0.053,0.98,1.59,-2.96
2022-12-08 18:24:09.4120,-0.739,-1.064,-0.104,1.27,2.35,-2.69
2022-12-08 18:24:09.4220,-0.773,-1.104,-0.183,1.54,3.12,-2.17
2022-12-08 18:24:09.4320,-0.781,-1.1,-0.28,1.88,3.51,-1.41
2022-12-08 18:24:09.4430,-0.777,-1.092,-0.365,1.98,3.46,-0.49
2022-12-08 18:24:09.4530,-0.772,-1.093,-0.394,1.96,3.39,0.32
2022-12-08 18:24:09.4630,-0.792,-1.126,-0.335,1.93,3.38,0.61
2022-12-08 18:24:09.4720,-0.866,-1.203,-0.215,2.12,3.67,0.11
2022-12-08 18:24:09.4830,-0.957,-1.278,-0.076,2.83,4.38,-0.94
2022-12-08 18:24:09.4930,-0.974,-1.289,0.052,3.72,5.06,-2.16
2022-12-08 18:24:09.5030,-0.952,-1.204,0.05,3.9,5.12,-3.31
2022-12-08 18:24:09.5130,-0.932,-1.107,-0.079,3.72,4.25,-3.25
2022-12-08 18:24:09.5230,-0.851,-0.956,-0.162,3.57,3.26,-1.99
2022-12-08 18:24:09.5330,-0.685,-0.705,-0.15,1.26,-0.74,-1.34
2022-12-08 18:24:09.5450,-0.642,-0.533,-0.23,0.89,-2.43,-0.64
2022-12-08 18:24:09.5550,-0.698,-0.447,-0.451,0.89,-2.43,-0.64
2022-12-08 18:24:09.5630,-0.74,-0.426,-0.753,1.49,-3.26,1.38
2022-12-08 18:24:09.5730,-0.687,-0.373,-0.997,1.97,-3.44,4.19
2022-12-08 18:24:09.5830,-0.583,-0.286,-1.053,1.5,-3.95,6.44
2022-12-08 18:24:09.5930,-0.47,-0.259,-0.967,0.53,-4.8,6.91
2022-12-08 18:24:09.6030,-0.443,-0.312,-0.809,-0.56,-5.07,6.05
2022-12-08 18:24:09.6130,-0.52,-0.424,-0.699,-0.83,-4.57,4.56
2022-12-08 18:24:09.6230,-0.607,-0.611,-0.648,-0.08,-3.5,3.56
2022-12-08 18:24:09.6330,-0.652,-0.804,-0.558,0.75,-1.69,3.17
2022-12-08 18:24:09.6430,-0.693,-0.994,-0.425,1.19,0.16,2.39
2022-12-08 18:24:09.6530,-0.661,-1.053,-0.381,1.61,1.99,1.14
2022-12-08 18:24:09.6630,-0.552,-0.963,-0.4,1.33,2.54,0.71
2022-12-08 18:24:09.6730,-0.417,-0.868,-0.432,0.32,1.63,0.88
2022-12-08 18:24:09.6830,-0.347,-0.819,-0.445,-0.95,0.68,1.16
2022-12-08 18:24:09.6930,-0.329,-0.796,-0.428,-1.6,0.18,1.26
2022-12-08 18:24:09.7030,-0.361,-0.819,-0.421,-1.75,-0.06,1.08
2022-12-08 18:24:09.7130,-0.415,-0.837,-0.418,-1.43,0.17,0.99
2022-12-08 18:24:09.7230,-0.457,-0.839,-0.382,-0.89,0.34,0.95
2022-12-08 18:24:09.7330,-0.469,-0.786,-0.3,-0.46,0.36,0.58
2022-12-08 18:24:09.7430,-0.455,-0.682,-0.233,-0.33,-0.16,-0.24
2022-12-08 18:24:09.7530,-0.435,-0.572,-0.189,-0.44,-1.19,-0.93
2022-12-08 18:24:09.7630,-0.418,-0.507,-0.168,-0.62,-2.26,-1.39
2022-12-08 18:24:09.7730,-0.407,-0.464,-0.165,-0.76,-2.89,-1.63
2022-12-08 18:24:09.7830,-0.394,-0.432,-0.174,-0.85,-3.32,-1.69
2022-12-08 18:24:09.7930,-0.38,-0.431,-0.197,-0.97,-3.63,-1.63
2022-12-08 18:24:09.8030,-0.38,-0.446,-0.222,-1.08,-3.64,-1.44
2022-12-08 18:24:09.8130,-0.373,-0.458,-0.259,-1.06,-3.5,-1.21
2022-12-08 18:24:09.8230,-0.348,-0.478,-0.28,-1.11,-3.38,-0.86
2022-12-08 18:24:09.8330,-0.341,-0.504,-0.298,-1.35,-3.19,-0.67
2022-12-08 18:24:09.8440,-0.333,-0.541,-0.307,-1.4,-2.94,-0.5
2022-12-08 18:24:09.8540,-0.321,-0.58,-0.305,-1.47,-2.57,-0.42
2022-12-08 18:24:09.8640,-0.314,-0.611,-0.294,-1.58,-2.2,-0.45
2022-12-08 18:24:09.8740,-0.338,-0.646,-0.269,-1.65,-1.89,-0.56
2022-12-08 18:24:09.8840,-0.362,-0.686,-0.225,-1.42,-1.54,-0.81
2022-12-08 18:24:09.8940,-0.406,-0.73,-0.183,-1.2,-1.14,-1.25
2022-12-08 18:24:09.9040,-0.593,-0.636,-0.133,-0.76,-0.7,-1.67
2022-12-08 18:24:09.9140,-0.421,-0.793,-0.116,1.07,-1.62,-2.16
2022-12-08 18:24:09.9240,-0.316,-0.998,-0.102,-0.61,-0.09,-2.32
2022-12-08 18:24:09.9340,-0.388,-1.021,-0.044,-1.67,1.92,-2.43
2022-12-08 18:24:09.9440,-0.472,-1.012,-0.052,-0.97,2.15,-3.0
2022-12-08 18:24:09.9540,-0.536,-1.015,-0.143,-0.16,2.06,-2.92
2022-12-08 18:24:09.9640,-0.575,-1.016,-0.249,0.48,2.11,-2.04
2022-12-08 18:24:09.9740,-0.599,-1.011,-0.334,0.86,2.12,-1.02
2022-12-08 18:24:09.9840,-0.653,-1.044,-0.345,1.1,2.07,-0.2
2022-12-08 18:24:09.9940,-0.637,-1.017,-0.299,1.63,2.39,-0.08
2022-12-08 18:24:10.0040,-0.553,-1.049,-0.289,1.46,2.13,-0.52
2022-12-08 18:24:10.0140,-0.538,-1.199,-0.235,0.62,2.44,-0.59
2022-12-08 18:24:10.0240,-0.655,-1.308,-0.177,0.46,3.9,-1.07
2022-12-08 18:24:10.0340,-0.72,-1.311,-0.219,1.59,4.96,-1.58
2022-12-08 18:24:10.0440,-0.649,-1.262,-0.303,2.2,4.97,-1.1
2022-12-08 18:24:10.0540,-0.568,-1.197,-0.354,1.49,4.47,-0.2
2022-12-08 18:24:10.0640,-0.548,-1.133,-0.375,0.68,3.82,0.39
2022-12-08 18:24:10.0740,-0.554,-1.073,-0.345,0.45,3.16,0.7
2022-12-08 18:24:10.0840,-0.548,-1.018,-0.274,0.47,2.55,0.52
2022-12-08 18:24:10.0940,-0.501,-0.93,-0.25,0.37,2.0,-0.05
2022-12-08 18:24:10.1040,-0.494,-0.858,-0.32,-0.13,1.13,-0.18
2022-12-08 18:24:10.1140,-0.501,-0.771,-0.437,-0.25,0.41,0.6
2022-12-08 18:24:10.1240,-0.504,-0.697,-0.532,-0.21,-0.44,1.84
2022-12-08 18:24:10.1340,-0.501,-0.647,-0.601,-0.21,-1.17,2.84
2022-12-08 18:24:10.1440,-0.507,-0.614,-0.655,-0.26,-1.67,3.58
2022-12-08 18:24:10.1540,-0.522,-0.619,-0.717,-0.21,-2.0,4.17
2022-12-08 18:24:10.1640,-0.548,-0.643,-0.755,-0.06,-1.96,4.81
2022-12-08 18:24:10.1740,-0.578,-0.716,-0.718,0.2,-1.74,5.22
2022-12-08 18:24:10.1840,-0.621,-0.796,-0.593,0.5,-1.04,4.89
2022-12-08 18:24:10.1940,-0.686,-0.856,-0.398,0.94,-0.27,3.68
2022-12-08 18:24:10.2040,-0.742,-0.891,-0.178,1.58,0.31,1.77
2022-12-08 18:24:10.2140,-0.808,-0.922,0.023,2.14,0.65,-0.38
2022-12-08 18:24:10.2240,-0.834,-0.924,0.128,2.79,0.95,-2.38
2022-12-08 18:24:10.2340,-0.81,-0.896,0.086,3.06,0.98,-3.45
2022-12-08 18:24:10.2440,-0.755,-0.846,-0.051,2.81,0.72,-3.07
2022-12-08 18:24:10.2550,-0.681,-0.772,-0.134,2.26,0.25,-1.76
2022-12-08 18:24:10.2650,-0.613,-0.733,-0.171,1.5,-0.45,-0.96
2022-12-08 18:24:10.2740,-0.556,-0.721,-0.194,0.81,-0.81,-0.61
2022-12-08 18:24:10.2850,-0.497,-0.722,-0.216,0.21,-0.91,-0.38
2022-12-08 18:24:10.2950,-0.445,-0.726,-0.23,-0.4,-0.87,-0.17
2022-12-08 18:24:10.3040,-0.394,-0.714,-0.221,-0.95,-0.8,-0.04
2022-12-08 18:24:10.3150,-0.347,-0.667,-0.21,-1.5,-0.89,-0.14
2022-12-08 18:24:10.3250,-0.328,-0.65,-0.218,-1.99,-1.32,-0.26
2022-12-08 18:24:10.3350,-0.313,-0.599,-0.21,-2.22,-1.46,-0.21
2022-12-08 18:24:10.3450,-0.302,-0.529,-0.209,-2.4,-1.92,-0.31
2022-12-08 18:24:10.3550,-0.293,-0.464,-0.201,-2.54,-2.57,-0.36
2022-12-08 18:24:10.3650,-0.28,-0.406,-0.21,-2.66,-3.18,-0.47
2022-12-08 18:24:10.3750,-0.282,-0.361,-0.234,-2.81,-3.72,-0.43
2022-12-08 18:24:10.3850,-0.299,-0.335,-0.248,-2.81,-4.13,-0.25
2022-12-08 18:24:10.3950,-0.333,-0.335,-0.261,-2.65,-4.37,-0.15
2022-12-08 18:24:10.4050,-0.374,-0.368,-0.258,-2.32,-4.35,-0.06
2022-12-08 18:24:10.4150,-0.407,-0.424,-0.233,-1.91,-4.02,-0.12
2022-12-08 18:24:10.4250,-0.428,-0.487,-0.185,-1.58,-3.47,-0.4
2022-12-08 18:24:10.4350,-0.47,-0.566,-0.142,-1.36,-2.85,-0.89
2022-12-08 18:24:10.4450,-0.506,-0.641,-0.104,-0.93,-2.08,-1.33
2022-12-08 18:24:10.4550,-0.543,-0.717,-0.067,-0.56,-1.35,-1.72
2022-12-08 18:24:10.4650,-0.604,-0.786,-0.031,-0.19,-0.61,-2.09
2022-12-08 18:24:10.4750,-0.655,-0.841,0.004,0.41,0.07,-2.44
2022-12-08 18:24:10.4850,-0.705,-0.902,0.033,0.91,0.6,-2.77
2022-12-08 18:24:10.4950,-0.746,-0.977,0.034,1.4,1.19,-3.04
2022-12-08 18:24:10.5050,-0.777,-1.076,0.007,1.8,1.92,-3.02
2022-12-08 18:24:10.5150,-0.796,-1.177,-0.047,2.11,2.89,-2.74
2022-12-08 18:24:10.5250,-0.793,-1.202,-0.113,2.3,3.88,-2.23
2022-12-08 18:24:10.5350,-0.81,-1.166,-0.202,2.27,4.14,-1.61
2022-12-08 18:24:10.5450,-0.802,-1.143,-0.26,2.43,3.8,-0.78
2022-12-08 18:24:10.5550,-0.8,-1.185,-0.238,2.35,3.58,-0.22
2022-12-08 18:24:10.5650,-0.853,-1.296,-0.15,2.32,3.99,-0.41
2022-12-08 18:24:10.5750,-0.921,-1.45,-0.028,2.81,5.06,-1.19
2022-12-08 18:24:10.5850,-0.947,-1.58,0.039,3.46,6.56,-2.29
2022-12-08 18:24:10.5950,-0.974,-1.54,-0.017,3.72,7.81,-2.88
2022-12-08 18:24:10.6050,-1.015,-1.405,-0.109,4.01,7.39,-2.29
2022-12-08 18:24:10.6150,-0.993,-1.201,-0.144,4.46,6.02,-1.38
2022-12-08 18:24:10.6250,-0.782,-0.845,-0.134,4.31,3.98,-1.04
2022-12-08 18:24:10.6350,-0.623,-0.584,-0.216,2.32,0.45,-1.19
2022-12-08 18:24:10.6450,-0.553,-0.427,-0.364,0.84,-2.14,-0.48
2022-12-08 18:24:10.6550,-0.498,-0.219,-0.56,0.23,-3.68,0.84
2022-12-08 18:24:10.6660,-0.438,-0.047,-0.808,-0.24,-5.72,2.64
2022-12-08 18:24:10.6750,-0.415,-0.068,-0.974,-0.78,-7.4,4.97
2022-12-08 18:24:10.6860,-0.386,-0.206,-0.925,-0.98,-7.2,6.55
2022-12-08 18:24:10.6950,-0.398,-0.366,-0.823,-1.27,-5.84,6.08
2022-12-08 18:24:10.7050,-0.474,-0.524,-0.796,-1.16,-4.28,5.13
2022-12-08 18:24:10.7160,-0.562,-0.713,-0.728,-0.44,-2.75,4.94
2022-12-08 18:24:10.7260,-0.609,-0.911,-0.604,0.42,-0.92,4.36
2022-12-08 18:24:10.7360,-0.616,-1.019,-0.499,0.88,0.99,3.2
2022-12-08 18:24:10.7460,-0.536,-0.995,-0.448,0.97,2.03,2.21
2022-12-08 18:24:10.7560,-0.426,-0.927,-0.426,0.22,1.76,1.74
2022-12-08 18:24:10.7660,-0.346,-0.878,-0.423,-0.83,1.07,1.53
2022-12-08 18:24:10.7760,-0.311,-0.845,-0.424,-1.58,0.57,1.52
2022-12-08 18:24:10.7860,-0.311,-0.854,-0.399,-1.92,0.24,1.55
2022-12-08 18:24:10.7960,-0.363,-0.885,-0.34,-1.92,0.31,1.35
2022-12-08 18:24:10.8060,-0.421,-0.946,-0.243,-1.41,0.6,0.8
2022-12-08 18:24:10.8160,-0.448,-0.966,-0.121,-0.84,1.2,-0.14
2022-12-08 18:24:10.8260,-0.434,-0.923,-0.05,-0.57,1.39,-1.32
2022-12-08 18:24:10.8360,-0.398,-0.796,-0.008,-0.69,0.95,-2.03
2022-12-08 18:24:10.8460,-0.378,-0.645,-0.004,-1.02,-0.31,-2.44
2022-12-08 18:24:10.8560,-0.372,-0.558,-0.037,-1.2,-1.8,-2.49
2022-12-08 18:24:10.8660,-0.365,-0.512,-0.09,-1.23,-2.65,-2.18
2022-12-08 18:24:10.8760,-0.369,-0.477,-0.136,-1.27,-3.11,-1.68
2022-12-08 18:24:10.8860,-0.357,-0.47,-0.164,-1.22,-3.47,-1.24
2022-12-08 18:24:10.8960,-0.351,-0.471,-0.194,-1.31,-3.53,-1.0
2022-12-08 18:24:10.9060,-0.353,-0.483,-0.23,-1.36,-3.53,-0.73
2022-12-08 18:24:10.9160,-0.342,-0.504,-0.255,-1.33,-3.41,-0.41
2022-12-08 18:24:10.9260,-0.343,-0.542,-0.266,-1.42,-3.2,-0.19
2022-12-08 18:24:10.9360,-0.351,-0.594,-0.258,-1.4,-2.82,-0.11
2022-12-08 18:24:10.9460,-0.345,-0.644,-0.233,-1.32,-2.3,-0.22
2022-12-08 18:24:10.9560,-0.337,-0.688,-0.21,-1.37,-1.81,-0.49
2022-12-08 18:24:10.9660,-0.344,-0.723,-0.191,-1.45,-1.36,-0.75
2022-12-08 18:24:10.9760,-0.362,-0.757,-0.161,-1.38,-1.01,-0.97
2022-12-08 18:24:10.9860,-0.372,-0.785,-0.113,-1.22,-0.66,-1.3
2022-12-08 18:24:10.9960,-0.38,-0.814,-0.078,-1.13,-0.36,-1.81
2022-12-08 18:24:11.0060,-0.382,-0.824,-0.058,-1.08,-0.05,-2.18
2022-12-08 18:24:11.0160,-0.39,-0.891,-0.084,-1.08,0.07,-2.4
2022-12-08 18:24:11.0260,-0.404,-0.929,-0.111,-1.03,0.75,-2.18
2022-12-08 18:24:11.0360,-0.429,-0.949,-0.156,-0.92,1.15,-1.93
2022-12-08 18:24:11.0460,-0.465,-0.955,-0.221,-0.7,1.37,-1.51
2022-12-08 18:24:11.0560,-0.51,-0.958,-0.282,-0.36,1.44,-0.9
2022-12-08 18:24:11.0660,-0.553,-0.986,-0.304,0.07,1.49,-0.32
2022-12-08 18:24:11.0760,-0.614,-1.037,-0.301,0.47,1.78,-0.12
2022-12-08 18:24:11.0860,-0.623,-1.072,-0.231,1.05,2.29,-0.15
2022-12-08 18:24:11.0960,-0.656,-1.18,-0.167,1.11,2.65,-0.83
2022-12-08 18:24:11.1060,-0.699,-1.251,-0.107,1.42,3.72,-1.44
2022-12-08 18:24:11.1170,-0.703,-1.329,-0.124,1.8,4.43,-2.01
2022-12-08 18:24:11.1270,-0.722,-1.391,-0.199,1.97,5.82,-1.06
2022-12-08 18:24:11.1390,-0.682,-1.355,-0.247,1.97,5.82,-1.06
2022-12-08 18:24:11.1470,-0.67,-1.301,-0.28,1.55,5.48,-0.55
2022-12-08 18:24:11.1570,-0.648,-1.218,-0.304,1.39,4.96,-0.19
2022-12-08 18:24:11.1670,-0.603,-1.127,-0.321,1.13,4.16,0.08
2022-12-08 18:24:11.1770,-0.558,-1.023,-0.352,0.64,3.29,0.28
2022-12-08 18:24:11.1870,-0.541,-0.918,-0.446,0.13,2.31,0.61
2022-12-08 18:24:11.1970,-0.555,-0.86,-0.558,-0.12,1.32,1.56
2022-12-08 18:24:11.2070,-0.564,-0.786,-0.661,-0.05,0.8,2.67
2022-12-08 18:24:11.2170,-0.56,-0.69,-0.726,-0.04,0.12,3.69
2022-12-08 18:24:11.2270,-0.559,-0.646,-0.764,-0.13,-0.77,4.33
2022-12-08 18:24:11.2370,-0.558,-0.606,-0.814,-0.2,-1.16,4.68
2022-12-08 18:24:11.2470,-0.539,-0.538,-0.841,-0.25,-1.51,5.13
2022-12-08 18:24:11.2570,-0.541,-0.492,-0.824,-0.46,-2.14,5.34
2022-12-08 18:24:11.2670,-0.57,-0.513,-0.755,-0.47,-2.54,5.12
2022-12-08 18:24:11.2770,-0.604,-0.559,-0.661,-0.19,-2.3,4.37
2022-12-08 18:24:11.2870,-0.687,-0.595,-0.472,0.11,-1.8,3.4
2022-12-08 18:24:11.2970,-0.788,-0.639,-0.272,0.9,-1.41,1.51
2022-12-08 18:24:11.3070,-0.834,-0.682,-0.089,1.85,-0.93,-0.5
2022-12-08 18:24:11.3170,-0.847,-0.711,0.017,2.28,-0.47,-2.32
2022-12-08 18:24:11.3270,-0.796,-0.713,0.011,2.38,-0.15,-3.4
2022-12-08 18:24:11.3370,-0.723,-0.691,-0.095,1.85,-0.1,-3.37
2022-12-08 18:24:11.3470,-0.674,-0.666,-0.215,1.11,-0.28,-2.36
2022-12-08 18:24:11.3570,-0.626,-0.658,-0.284,0.62,-0.5,-1.2
2022-12-08 18:24:11.3670,-0.577,-0.68,-0.299,0.13,-0.56,-0.53
2022-12-08 18:24:11.3770,-0.54,-0.69,-0.282,-0.37,-0.33,-0.39
2022-12-08 18:24:11.3870,-0.508,-0.699,-0.257,-0.74,-0.22,-0.57
2022-12-08 18:24:11.3970,-0.482,-0.694,-0.217,-1.06,-0.12,-0.82
2022-12-08 18:24:11.4070,-0.457,-0.66,-0.205,-1.33,-0.16,-1.22
2022-12-08 18:24:11.4170,-0.419,-0.597,-0.208,-1.58,-0.49,-1.35
2022-12-08 18:24:11.4270,-0.369,-0.526,-0.214,-1.95,-1.09,-1.34
2022-12-08 18:24:11.4370,-0.324,-0.454,-0.224,-2.43,-1.79,-1.3
2022-12-08 18:24:11.4470,-0.286,-0.39,-0.247,-2.87,-2.48,-1.23
2022-12-08 18:24:11.4570,-0.255,-0.313,-0.267,-3.22,-3.11,-1.03
2022-12-08 18:24:11.4670,-0.26,-0.295,-0.313,-3.53,-3.85,-0.86
2022-12-08 18:24:11.4770,-0.282,-0.293,-0.382,-3.49,-4.01,-0.43
2022-12-08 18:24:11.4870,-0.331,-0.293,-0.416,-3.26,-4.01,0.21
2022-12-08 18:24:11.4970,-0.369,-0.336,-0.409,-2.77,-4.01,0.52
2022-12-08 18:24:11.5070,-0.397,-0.395,-0.359,-2.39,-3.59,0.42
2022-12-08 18:24:11.5170,-0.435,-0.451,-0.283,-2.11,-3.02,-0.08
2022-12-08 18:24:11.5280,-0.484,-0.517,-0.217,-1.72,-2.47,-0.82
2022-12-08 18:24:11.5380,-0.54,-0.596,-0.15,-1.24,-1.83,-1.45
2022-12-08 18:24:11.5470,-0.63,-0.691,-0.096,-0.7,-1.07,-2.07
2022-12-08 18:24:11.5580,-0.709,-0.773,-0.028,0.17,-0.15,-2.55
2022-12-08 18:24:11.5680,-0.795,-0.846,0.022,0.92,0.64,-3.15
2022-12-08 18:24:11.5780,-0.843,-0.893,0.054,1.75,1.34,-3.57
2022-12-08 18:24:11.5880,-0.846,-0.936,0.04,2.19,1.78,-3.81
2022-12-08 18:24:11.5980,-0.834,-1.006,-0.025,2.21,2.19,-3.62
2022-12-08 18:24:11.6080,-0.819,-1.085,-0.109,2.08,2.87,-2.94
2022-12-08 18:24:11.6180,-0.818,-1.103,-0.191,1.93,3.64,-2.1
2022-12-08 18:24:11.6280,-0.811,-1.068,-0.271,1.92,3.81,-1.29
2022-12-08 18:24:11.6380,-0.804,-1.044,-0.314,1.86,3.47,-0.51
2022-12-08 18:24:11.6480,-0.823,-1.053,-0.285,1.8,3.23,-0.08
2022-12-08 18:24:11.6580,-0.869,-1.114,-0.186,1.98,3.29,-0.33
2022-12-08 18:24:11.6680,-0.943,-1.233,-0.074,2.42,3.85,-1.19
2022-12-08 18:24:11.6780,-1.01,-1.371,0.009,3.13,4.97,-2.14
2022-12-08 18:24:11.6880,-1.04,-1.379,0.048,3.79,6.27,-2.81
2022-12-08 18:24:11.6980,-1.041,-1.262,0.013,4.11,6.29,-3.1
2022-12-08 18:24:11.7080,-0.974,-1.085,-0.06,4.17,5.1,-2.72
2022-12-08 18:24:11.7180,-0.794,-0.777,-0.101,3.57,3.31,-2.01
2022-12-08 18:24:11.7280,-0.635,-0.532,-0.204,1.87,0.26,-1.68
2022-12-08 18:24:11.7380,-0.652,-0.367,-0.548,0.38,-2.14,-0.84
2022-12-08 18:24:11.7480,-0.709,-0.152,-0.974,0.62,-3.72,2.32
2022-12-08 18:24:11.7580,-0.669,-0.044,-1.215,1.25,-5.79,6.27
2022-12-08 18:24:11.7680,-0.507,-0.144,-1.224,0.91,-6.82,8.46
2022-12-08 18:24:11.7780,-0.366,-0.271,-1.025,-0.66,-5.82,8.48
2022-12-08 18:24:11.7880,-0.395,-0.307,-0.843,-2.05,-4.58,6.54
2022-12-08 18:24:11.7980,-0.549,-0.381,-0.771,-1.78,-4.24,4.84
2022-12-08 18:24:11.8080,-0.666,-0.574,-0.691,-0.31,-3.55,4.25
2022-12-08 18:24:11.8180,-0.771,-0.858,-0.55,0.82,-1.68,3.58
2022-12-08 18:24:11.8280,-0.795,-1.051,-0.466,1.85,1.06,2.29
2022-12-08 18:24:11.8380,-0.676,-1.036,-0.441,2.12,2.91,1.51
2022-12-08 18:24:11.8480,-0.516,-0.936,-0.426,1.0,2.73,1.26
2022-12-08 18:24:11.8580,-0.39,-0.841,-0.447,-0.52,1.71,1.1
2022-12-08 18:24:11.8680,-0.332,-0.758,-0.436,-1.72,0.76,1.29
2022-12-08 18:24:11.8780,-0.331,-0.732,-0.426,-2.29,-0.06,1.19
2022-12-08 18:24:11.8880,-0.373,-0.731,-0.4,-2.32,-0.31,1.11
2022-12-08 18:24:11.8980,-0.463,-0.78,-0.338,-1.93,-0.29,0.86
2022-12-08 18:24:11.9080,-0.527,-0.825,-0.27,-1.08,0.2,0.26
2022-12-08 18:24:11.9180,-0.536,-0.805,-0.192,-0.47,0.66,-0.41
2022-12-08 18:24:11.9280,-0.515,-0.727,-0.117,-0.38,0.47,-1.2
2022-12-08 18:24:11.9380,-0.459,-0.604,-0.062,-0.57,-0.29,-1.96
2022-12-08 18:24:11.9480,-0.423,-0.491,-0.033,-1.11,-1.5,-2.55
2022-12-08 18:24:11.9580,-0.412,-0.429,-0.061,-1.43,-2.6,-2.88
2022-12-08 18:24:11.9690,-0.416,-0.397,-0.123,-1.52,-3.2,-2.66
2022-12-08 18:24:11.9790,-0.425,-0.373,-0.171,-1.47,-3.5,-2.09
2022-12-08 18:24:11.9890,-0.421,-0.379,-0.234,-1.35,-3.74,-1.67
2022-12-08 18:24:11.9990,-0.417,-0.403,-0.281,-1.36,-3.67,-1.1
2022-12-08 18:24:12.0090,-0.411,-0.429,-0.305,-1.39,-3.43,-0.68
2022-12-08 18:24:12.0190,-0.407,-0.466,-0.325,-1.43,-3.18,-0.47
2022-12-08 18:24:12.0290,-0.404,-0.528,-0.322,-1.46,-2.8,-0.31
2022-12-08 18:24:12.0390,-0.401,-0.589,-0.297,-1.48,-2.19,-0.38
2022-12-08 18:24:12.0490,-0.4,-0.632,-0.266,-1.51,-1.57,-0.66
2022-12-08 18:24:12.0590,-0.411,-0.659,-0.222,-1.52,-1.13,-0.99
2022-12-08 18:24:12.0690,-0.453,-0.694,-0.184,-1.43,-0.85,-1.45
2022-12-08 18:24:12.0790,-0.477,-0.74,-0.147,-1.04,-0.47,-1.84
2022-12-08 18:24:12.0890,-0.492,-0.803,-0.113,-0.83,0.01,-2.22
2022-12-08 18:24:12.0990,-0.506,-0.848,-0.104,-0.71,0.65,-2.57
2022-12-08 18:24:12.1090,-0.531,-0.878,-0.139,-0.59,1.11,-2.67
2022-12-08 18:24:12.1190,-0.558,-0.895,-0.209,-0.36,1.42,-2.33
2022-12-08 18:24:12.1290,-0.595,-0.899,-0.301,-0.11,1.61,-1.66
2022-12-08 18:24:12.1390,-0.628,-0.899,-0.373,0.24,1.67,-0.77
2022-12-08 18:24:12.1490,-0.666,-0.903,-0.388,0.55,1.67,-0.08
2022-12-08 18:24:12.1590,-0.71,-0.94,-0.365,0.92,1.72,0.08
2022-12-08 18:24:12.1690,-0.738,-1.009,-0.294,1.62,2.75,-0.8
2022-12-08 18:24:12.1810,-0.776,-1.093,-0.249,1.62,2.75,-0.8
2022-12-08 18:24:12.1890,-0.824,-1.174,-0.271,1.98,3.57,-1.22
2022-12-08 18:24:12.1990,-0.834,-1.228,-0.319,2.45,4.34,-0.97
2022-12-08 18:24:12.2090,-0.817,-1.265,-0.373,2.53,4.86,-0.47
2022-12-08 18:24:12.2190,-0.778,-1.244,-0.405,2.37,5.21,0.1
2022-12-08 18:24:12.2290,-0.746,-1.209,-0.425,1.97,4.99,0.47
2022-12-08 18:24:12.2390,-0.711,-1.17,-0.427,1.65,4.63,0.72
2022-12-08 18:24:12.2490,-0.664,-1.125,-0.421,1.27,4.23,0.81
2022-12-08 18:24:12.2590,-0.63,-1.054,-0.43,0.79,3.77,0.83
2022-12-08 18:24:12.2690,-0.609,-0.958,-0.466,0.42,3.08,0.99
2022-12-08 18:24:12.2790,-0.592,-0.857,-0.544,0.18,2.13,1.4
2022-12-08 18:24:12.2890,-0.572,-0.773,-0.625,-0.01,1.14,2.21
2022-12-08 18:24:12.2990,-0.552,-0.692,-0.689,-0.22,0.32,3.03
2022-12-08 18:24:12.3090,-0.543,-0.602,-0.764,-0.43,-0.47,3.67
2022-12-08 18:24:12.3190,-0.55,-0.535,-0.826,-0.52,-1.35,4.4
2022-12-08 18:24:12.3290,-0.574,-0.507,-0.868,-0.45,-2.0,4.99
2022-12-08 18:24:12.3390,-0.617,-0.509,-0.856,-0.2,-2.28,5.39
2022-12-08 18:24:12.3490,-0.677,-0.51,-0.766,0.22,-2.26,5.26
2022-12-08 18:24:12.3600,-0.757,-0.498,-0.577,0.83,-2.26,4.39
2022-12-08 18:24:12.3690,-0.84,-0.522,-0.346,1.62,-2.38,2.53
2022-12-08 18:24:12.3790,-0.88,-0.563,-0.147,2.45,-2.16,0.26
2022-12-08 18:24:12.3890,-0.885,-0.607,-0.036,2.85,-1.75,-1.71
2022-12-08 18:24:12.3990,-0.847,-0.65,-0.018,2.9,-1.32,-2.81
2022-12-08 18:24:12.4100,-0.773,-0.67,-0.089,2.52,-0.88,-3.02
2022-12-08 18:24:12.4200,-0.678,-0.648,-0.167,1.79,-0.67,-2.34
2022-12-08 18:24:12.4300,-0.619,-0.641,-0.232,0.83,-0.86,-1.59
2022-12-08 18:24:12.4400,-0.573,-0.655,-0.264,0.22,-0.9,-0.97
2022-12-08 18:24:12.4500,-0.53,-0.66,-0.262,-0.25,-0.74,-0.67
2022-12-08 18:24:12.4600,-0.492,-0.656,-0.26,-0.71,-0.66,-0.69
2022-12-08 18:24:12.4700,-0.456,-0.647,-0.257,-1.11,-0.67,-0.72
2022-12-08 18:24:12.4800,-0.434,-0.639,-0.245,-1.48,-0.74,-0.77
2022-12-08 18:24:12.4900,-0.415,-0.609,-0.252,-1.72,-0.78,-0.91
2022-12-08 18:24:12.5000,-0.391,-0.545,-0.255,-1.92,-1.05,-0.87
2022-12-08 18:24:12.5100,-0.37,-0.482,-0.262,-2.17,-1.65,-0.87
2022-12-08 18:24:12.5200,-0.344,-0.418,-0.272,-2.39,-2.25,-0.84
2022-12-08 18:24:12.5300,-0.318,-0.363,-0.279,-2.65,-2.84,-0.78
2022-12-08 18:24:12.5400,-0.303,-0.32,-0.29,-2.9,-3.36,-0.77
2022-12-08 18:24:12.5500,-0.309,-0.297,-0.316,-3.05,-3.77,-0.7
2022-12-08 18:24:12.5600,-0.331,-0.3,-0.345,-2.98,-3.97,-0.48
2022-12-08 18:24:12.5700,-0.372,-0.328,-0.361,-2.76,-3.93,-0.23
2022-12-08 18:24:12.5800,-0.418,-0.377,-0.353,-2.34,-3.65,-0.1
2022-12-08 18:24:12.5900,-0.457,-0.437,-0.304,-1.88,-3.18,-0.19
2022-12-08 18:24:12.6000,-0.494,-0.512,-0.256,-1.48,-2.6,-0.66
2022-12-08 18:24:12.6100,-0.535,-0.599,-0.212,-1.1,-1.89,-1.13
2022-12-08 18:24:12.6200,-0.568,-0.68,-0.166,-0.69,-1.06,-1.54
2022-12-08 18:24:12.6300,-0.627,-0.759,-0.12,-0.36,-0.28,-1.96
2022-12-08 18:24:12.6400,-0.675,-0.822,-0.069,0.22,0.47,-2.37
2022-12-08 18:24:12.6500,-0.716,-0.877,-0.035,0.68,1.07,-2.81
2022-12-08 18:24:12.6600,-0.729,-0.935,-0.033,1.08,1.59,-3.1
2022-12-08 18:24:12.6700,-0.731,-1.026,-0.066,1.2,2.14,-3.07
2022-12-08 18:24:12.6800,-0.737,-1.127,-0.133,1.22,3.02,-2.72
2022-12-08 18:24:12.6900,-0.739,-1.167,-0.217,1.28,4.0,-2.06
2022-12-08 18:24:12.7000,-0.727,-1.127,-0.311,1.32,4.39,-1.26
2022-12-08 18:24:12.7100,-0.726,-1.084,-0.392,1.23,4.0,-0.38
2022-12-08 18:24:12.7200,-0.778,-1.101,-0.393,1.24,3.57,0.38
2022-12-08 18:24:12.7300,-0.886,-1.224,-0.315,1.77,3.73,0.4
2022-12-08 18:24:12.7400,-1.028,-1.412,-0.218,2.84,4.9,-0.33
2022-12-08 18:24:12.7500,-1.113,-1.454,-0.147,4.24,6.72,-1.23
2022-12-08 18:24:12.7600,-1.092,-1.356,-0.154,5.09,7.11,-1.9
2022-12-08 18:24:12.7700,-1.048,-1.189,-0.245,4.93,6.11,-1.85
2022-12-08 18:24:12.7800,-0.925,-0.983,-0.323,4.56,4.45,-1.01
2022-12-08 18:24:12.7910,-0.735,-0.713,-0.434,3.43,2.4,-0.32
2022-12-08 18:24:12.8000,-0.601,-0.504,-0.556,1.64,-0.26,0.67
2022-12-08 18:24:12.8100,-0.558,-0.356,-0.65,0.41,-2.3,1.74
2022-12-08 18:24:12.8210,-0.521,-0.207,-0.723,0.05,-3.74,2.55
2022-12-08 18:24:12.8310,-0.518,-0.134,-0.73,-0.28,-5.19,3.18
2022-12-08 18:24:12.8410,-0.549,-0.174,-0.729,-0.28,-5.9,3.22
2022-12-08 18:24:12.8510,-0.516,-0.214,-0.719,0.04,-5.52,3.21
2022-12-08 18:24:12.8610,-0.491,-0.272,-0.696,-0.29,-5.15,3.14
2022-12-08 18:24:12.8710,-0.534,-0.393,-0.693,-0.54,-4.6,2.97
2022-12-08 18:24:12.8810,-0.609,-0.571,-0.656,-0.14,-3.44,3.02
2022-12-08 18:24:12.8910,-0.658,-0.771,-0.587,0.59,-1.72,2.72
2022-12-08 18:24:12.9010,-0.651,-0.88,-0.527,1.08,0.21,2.1
2022-12-08 18:24:12.9110,-0.575,-0.869,-0.49,1.03,1.24,1.55
2022-12-08 18:24:12.9210,-0.476,-0.81,-0.455,0.32,1.11,1.2
2022-12-08 18:24:12.9310,-0.389,-0.747,-0.44,-0.63,0.5,0.88
2022-12-08 18:24:12.9410,-0.351,-0.687,-0.443,-1.47,-0.14,0.76
2022-12-08 18:24:12.9510,-0.358,-0.672,-0.448,-1.85,-0.74,0.81
2022-12-08 18:24:12.9610,-0.398,-0.7,-0.451,-1.81,-0.88,0.9
2022-12-08 18:24:12.9710,-0.459,-0.746,-0.443,-1.44,-0.6,0.94
2022-12-08 18:24:12.9810,-0.515,-0.792,-0.424,-0.87,-0.13,0.88
2022-12-08 18:24:12.9910,-0.547,-0.817,-0.38,-0.34,0.33,0.7
2022-12-08 18:24:13.0010,-0.535,-0.783,-0.325,-0.03,0.59,0.25
2022-12-08 18:24:13.0110,-0.501,-0.702,-0.254,-0.15,0.26,-0.31
2022-12-08 18:24:13.0210,-0.459,-0.605,-0.186,-0.48,-0.53,-1.04
2022-12-08 18:24:13.0310,-0.434,-0.535,-0.153,-0.87,-1.47,-1.73
2022-12-08 18:24:13.0410,-0.425,-0.501,-0.156,-1.11,-2.14,-2.09
2022-12-08 18:24:13.0510,-0.422,-0.486,-0.181,-1.19,-2.46,-2.1
2022-12-08 18:24:13.0610,-0.426,-0.476,-0.199,-1.21,-2.6,-1.9
2022-12-08 18:24:13.0710,-0.421,-0.474,-0.204,-1.17,-2.68,-1.76
2022-12-08 18:24:13.0810,-0.415,-0.478,-0.219,-1.21,-2.69,-1.74
2022-12-08 18:24:13.0910,-0.405,-0.489,-0.236,-1.26,-2.64,-1.63
2022-12-08 18:24:13.1010,-0.399,-0.515,-0.266,-1.36,-2.52,-1.49
2022-12-08 18:24:13.1110,-0.387,-0.554,-0.293,-1.43,-2.24,-1.22
2022-12-08 18:24:13.1210,-0.374,-0.59,-0.31,-1.55,-1.84,-1.0
2022-12-08 18:24:13.1310,-0.36,-0.617,-0.324,-1.68,-1.47,-0.85
2022-12-08 18:24:13.1410,-0.374,-0.64,-0.326,-1.83,-1.18,-0.74
2022-12-08 18:24:13.1510,-0.399,-0.672,-0.29,-1.71,-0.94,-0.74
2022-12-08 18:24:13.1610,-0.422,-0.713,-0.225,-1.49,-0.59,-1.11
2022-12-08 18:24:13.1710,-0.438,-0.761,-0.163,-1.3,-0.16,-1.75
2022-12-08 18:24:13.1810,-0.451,-0.802,-0.114,-1.17,0.33,-2.36
2022-12-08 18:24:13.1910,-0.476,-0.845,-0.101,-1.08,0.76,-2.83
2022-12-08 18:24:13.2010,-0.527,-0.905,-0.149,-0.87,1.21,-2.95
2022-12-08 18:24:13.2110,-0.568,-0.948,-0.235,-0.41,1.81,-2.47
2022-12-08 18:24:13.2210,-0.59,-0.962,-0.333,-0.02,2.25,-1.63
2022-12-08 18:24:13.2320,-0.612,-0.953,-0.421,0.18,2.4,-0.66
2022-12-08 18:24:13.2420,-0.641,-0.945,-0.452,0.39,2.32,0.2
2022-12-08 18:24:13.2520,-0.681,-0.95,-0.41,0.66,2.25,0.52
2022-12-08 18:24:13.2620,-0.724,-0.989,-0.332,1.04,2.29,0.13
2022-12-08 18:24:13.2720,-0.769,-1.062,-0.265,1.44,2.67,-0.61
2022-12-08 18:24:13.2840,-0.821,-1.161,-0.264,1.86,3.39,-1.23
2022-12-08 18:24:13.2920,-0.844,-1.236,-0.317,2.36,4.34,-1.2
2022-12-08 18:24:13.3010,-0.821,-1.249,-0.358,2.57,5.06,-0.63
2022-12-08 18:24:13.3120,-0.764,-1.21,-0.377,2.33,5.18,-0.17
2022-12-08 18:24:13.3220,-0.716,-1.166,-0.391,1.76,4.78,0.07
2022-12-08 18:24:13.3320,-0.685,-1.116,-0.383,1.26,4.33,0.28
2022-12-08 18:24:13.3420,-0.669,-1.05,-0.377,0.93,3.82,0.28
2022-12-08 18:24:13.3520,-0.654,-0.944,-0.4,0.73,3.16,0.3
2022-12-08 18:24:13.3620,-0.643,-0.837,-0.453,0.54,2.13,0.6
2022-12-08 18:24:13.3720,-0.645,-0.741,-0.53,0.4,1.08,1.19
2022-12-08 18:24:13.3820,-0.631,-0.669,-0.617,0.4,0.14,2.0
2022-12-08 18:24:13.3920,-0.616,-0.599,-0.708,0.23,-0.57,2.9
2022-12-08 18:24:13.4020,-0.615,-0.524,-0.812,0.07,-1.26,3.82
2022-12-08 18:24:13.4120,-0.623,-0.473,-0.904,0.05,-2.0,4.86
2022-12-08 18:24:13.4220,-0.646,-0.466,-0.954,0.12,-2.5,5.77
2022-12-08 18:24:13.4320,-0.675,-0.487,-0.931,0.36,-2.57,6.27
2022-12-08 18:24:13.4420,-0.729,-0.509,-0.794,0.65,-2.38,6.05
2022-12-08 18:24:13.4520,-0.811,-0.537,-0.54,1.18,-2.17,4.72
2022-12-08 18:24:13.4620,-0.883,-0.596,-0.27,1.99,-1.9,2.24
2022-12-08 18:24:13.4720,-0.906,-0.654,-0.068,2.69,-1.32,-0.4
2022-12-08 18:24:13.4820,-0.893,-0.688,0.013,2.91,-0.75,-2.39
2022-12-08 18:24:13.4920,-0.819,-0.694,-0.023,2.78,-0.4,-3.2
2022-12-08 18:24:13.5020,-0.734,-0.68,-0.126,2.04,-0.32,-2.86
2022-12-08 18:24:13.5120,-0.662,-0.664,-0.202,1.18,-0.43,-1.86
2022-12-08 18:24:13.5220,-0.597,-0.663,-0.225,0.45,-0.57,-1.13
2022-12-08 18:24:13.5320,-0.541,-0.669,-0.233,-0.22,-0.56,-0.9
2022-12-08 18:24:13.5420,-0.494,-0.665,-0.233,-0.8,-0.47,-0.82
2022-12-08 18:24:13.5520,-0.452,-0.668,-0.233,-1.29,-0.48,-0.82
2022-12-08 18:24:13.5620,-0.419,-0.674,-0.235,-1.72,-0.43,-0.82
2022-12-08 18:24:13.5720,-0.404,-0.657,-0.226,-2.07,-0.35,-0.81
2022-12-08 18:24:13.5820,-0.376,-0.588,-0.218,-2.25,-0.49,-0.91
2022-12-08 18:24:13.5920,-0.344,-0.51,-0.228,-2.52,-1.15,-1.02
2022-12-08 18:24:13.6020,-0.31,-0.432,-0.247,-2.85,-1.89,-0.96
2022-12-08 18:24:13.6120,-0.285,-0.364,-0.281,-3.17,-2.63,-0.83
2022-12-08 18:24:13.6220,-0.255,-0.307,-0.33,-3.41,-3.27,-0.56
2022-12-08 18:24:13.6330,-0.253,-0.263,-0.355,-3.7,-3.81,-0.14
2022-12-08 18:24:13.6430,-0.282,-0.251,-0.373,-3.71,-4.22,0.05
2022-12-08 18:24:13.6520,-0.342,-0.273,-0.374,-3.42,-4.32,0.18
2022-12-08 18:24:13.6630,-0.417,-0.325,-0.356,-2.82,-4.09,0.16
2022-12-08 18:24:13.6730,-0.479,-0.383,-0.292,-2.08,-3.59,-0.03
2022-12-08 18:24:13.6830,-0.525,-0.435,-0.231,-1.46,-3.03,-0.68
2022-12-08 18:24:13.6930,-0.566,-0.484,-0.19,-0.98,-2.53,-1.28
2022-12-08 18:24:13.7030,-0.602,-0.554,-0.168,-0.56,-2.07,-1.68
2022-12-08 18:24:13.7130,-0.641,-0.636,-0.149,-0.19,-1.41,-1.87
2022-12-08 18:24:13.7230,-0.694,-0.723,-0.101,0.21,-0.64,-2.02
2022-12-08 18:24:13.7330,-0.757,-0.806,-0.033,0.73,0.18,-2.44
2022-12-08 18:24:13.7430,-0.805,-0.878,0.034,1.35,0.96,-3.03
2022-12-08 18:24:13.7530,-0.834,-0.953,0.054,1.82,1.63,-3.6
2022-12-08 18:24:13.7630,-0.849,-1.051,0.015,2.1,2.34,-3.74
2022-12-08 18:24:13.7730,-0.848,-1.144,-0.061,2.26,3.27,-3.32
2022-12-08 18:24:13.7830,-0.842,-1.159,-0.17,2.28,4.17,-2.58
2022-12-08 18:24:13.7930,-0.836,-1.123,-0.302,2.24,4.3,-1.54
2022-12-08 18:24:13.8030,-0.83,-1.121,-0.37,2.22,3.95,-0.3
2022-12-08 18:24:13.8130,-0.863,-1.162,-0.314,2.19,3.91,0.34
2022-12-08 18:24:13.8230,-0.96,-1.291,-0.207,2.54,4.28,-0.18
2022-12-08 18:24:13.8330,-1.086,-1.464,-0.145,3.5,5.51,-1.17
2022-12-08 18:24:13.8430,-1.177,-1.522,-0.126,4.77,7.15,-1.7
2022-12-08 18:24:13.8530,-1.213,-1.407,-0.175,5.7,7.67,-1.85
2022-12-08 18:24:13.8630,-1.131,-1.236,-0.192,6.12,6.48,-1.37
2022-12-08 18:24:13.8730,-0.826,-0.894,-0.175,5.41,4.75,-1.24
2022-12-08 18:24:13.8830,-0.6,-0.595,-0.272,2.51,1.36,-1.48
2022-12-08 18:24:13.8930,-0.604,-0.507,-0.482,0.39,-1.59,-0.65
2022-12-08 18:24:13.9030,-0.621,-0.357,-0.705,0.52,-2.44,1.25
2022-12-08 18:24:13.9130,-0.536,-0.138,-0.853,0.76,-3.9,3.26
2022-12-08 18:24:13.9230,-0.448,-0.026,-0.914,0.0,-6.02,4.59
2022-12-08 18:24:13.9330,-0.457,-0.075,-0.924,-0.83,-7.12,5.12
2022-12-08 18:24:13.9430,-0.435,-0.185,-0.837,-0.74,-6.65,5.24
2022-12-08 18:24:13.9530,-0.444,-0.321,-0.785,-0.97,-5.59,4.45
2022-12-08 18:24:13.9630,-0.557,-0.501,-0.783,-0.9,-4.29,4.03
2022-12-08 18:24:13.9730,-0.623,-0.717,-0.708,0.18,-2.56,4.13
2022-12-08 18:24:13.9830,-0.657,-0.887,-0.602,0.83,-0.49,3.5
2022-12-08 18:24:13.9930,-0.602,-0.923,-0.525,1.17,1.14,2.53
2022-12-08 18:24:14.0030,-0.453,-0.874,-0.431,0.66,1.45,1.81
2022-12-08 18:24:14.0130,-0.337,-0.811,-0.351,-0.76,0.94,0.91
2022-12-08 18:24:14.0230,-0.278,-0.755,-0.332,-1.88,0.3,0.15
2022-12-08 18:24:14.0330,-0.272,-0.709,-0.363,-2.46,-0.26,-0.02
2022-12-08 18:24:14.0440,-0.318,-0.726,-0.421,-2.55,-0.7,0.3
2022-12-08 18:24:14.0530,-0.389,-0.755,-0.434,-2.15,-0.5,0.89
2022-12-08 18:24:14.0630,-0.464,-0.775,-0.425,-1.49,-0.19,1.01
2022-12-08 18:24:14.0740,-0.523,-0.802,-0.392,-0.79,0.03,0.92
2022-12-08 18:24:14.0840,-0.557,-0.814,-0.334,-0.24,0.32,0.59
2022-12-08 18:24:14.0930,-0.551,-0.778,-0.254,0.08,0.45,0.0
2022-12-08 18:24:14.1040,-0.502,-0.69,-0.168,0.02,0.11,-0.81
2022-12-08 18:24:14.1140,-0.455,-0.591,-0.095,-0.45,-0.75,-1.67
2022-12-08 18:24:14.1240,-0.434,-0.521,-0.059,-0.91,-1.71,-2.41
2022-12-08 18:24:14.1340,-0.433,-0.49,-0.079,-1.1,-2.39,-2.79
2022-12-08 18:24:14.1440,-0.43,-0.471,-0.116,-1.1,-2.68,-2.63
2022-12-08 18:24:14.1540,-0.423,-0.464,-0.161,-1.12,-2.86,-2.31
2022-12-08 18:24:14.1640,-0.41,-0.467,-0.202,-1.19,-2.91,-1.9
2022-12-08 18:24:14.1740,-0.397,-0.479,-0.245,-1.31,-2.87,-1.53
2022-12-08 18:24:14.1840,-0.378,-0.511,-0.288,-1.44,-2.74,-1.16
2022-12-08 18:24:14.1940,-0.356,-0.549,-0.329,-1.62,-2.4,-0.77
2022-12-08 18:24:14.2040,-0.338,-0.578,-0.347,-1.84,-2.02,-0.41
2022-12-08 18:24:14.2140,-0.334,-0.613,-0.358,-2.03,-1.71,-0.26
2022-12-08 18:24:14.2240,-0.348,-0.643,-0.334,-2.07,-1.34,-0.18
2022-12-08 18:24:14.2340,-0.375,-0.677,-0.287,-1.96,-1.03,-0.43
2022-12-08 18:24:14.2440,-0.397,-0.721,-0.228,-1.72,-0.66,-0.92
2022-12-08 18:24:14.2540,-0.414,-0.762,-0.176,-1.52,-0.2,-1.51
2022-12-08 18:24:14.2640,-0.434,-0.802,-0.143,-1.22,0.64,-2.37
2022-12-08 18:24:14.2760,-0.465,-0.848,-0.137,-1.22,0.64,-2.37
2022-12-08 18:24:14.2840,-0.502,-0.879,-0.157,-0.94,1.12,-2.43
2022-12-08 18:24:14.2940,-0.545,-0.895,-0.214,-0.61,1.45,-2.25
2022-12-08 18:24:14.3040,-0.573,-0.896,-0.3,-0.2,1.63,-1.7
2022-12-08 18:24:14.3140,-0.593,-0.893,-0.38,0.06,1.64,-0.86
2022-12-08 18:24:14.3240,-0.624,-0.905,-0.426,0.25,1.62,-0.08
2022-12-08 18:24:14.3340,-0.659,-0.932,-0.418,0.55,1.74,0.38
2022-12-08 18:24:14.3440,-0.692,-0.969,-0.359,0.88,2.01,0.32
2022-12-08 18:24:14.3540,-0.732,-1.028,-0.27,1.19,2.37,-0.24
2022-12-08 18:24:14.3640,-0.768,-1.092,-0.162,1.57,2.94,-1.08
2022-12-08 18:24:14.3740,-0.822,-1.152,-0.107,1.91,3.56,-2.11
2022-12-08 18:24:14.3840,-0.877,-1.184,-0.183,2.43,4.14,-2.61
2022-12-08 18:24:14.3940,-0.853,-1.169,-0.268,2.95,4.45,-1.81
2022-12-08 18:24:14.4040,-0.771,-1.125,-0.315,2.71,4.27,-0.93
2022-12-08 18:24:14.4140,-0.698,-1.089,-0.373,1.9,3.82,-0.42
2022-12-08 18:24:14.4240,-0.663,-1.073,-0.424,1.16,3.46,0.21
2022-12-08 18:24:14.4340,-0.647,-1.056,-0.425,0.8,3.28,0.79
2022-12-08 18:24:14.4440,-0.629,-0.988,-0.402,0.62,3.1,0.88
2022-12-08 18:24:14.4540,-0.625,-0.909,-0.428,0.41,2.42,0.74
2022-12-08 18:24:14.4640,-0.631,-0.838,-0.487,0.33,1.64,1.05
2022-12-08 18:24:14.4750,-0.64,-0.778,-0.547,0.37,0.95,1.68
2022-12-08 18:24:14.4840,-0.627,-0.723,-0.619,0.43,0.36,2.3
2022-12-08 18:24:14.4940,-0.624,-0.639,-0.715,0.3,-0.17,3.03
2022-12-08 18:24:14.5050,-0.614,-0.549,-0.816,0.26,-0.99,3.96
2022-12-08 18:24:14.5150,-0.616,-0.505,-0.913,0.17,-1.88,4.95
2022-12-08 18:24:14.5250,-0.626,-0.501,-0.943,0.21,-2.32,5.88
2022-12-08 18:24:14.5350,-0.655,-0.506,-0.879,0.33,-2.37,6.16
2022-12-08 18:24:14.5450,-0.729,-0.512,-0.682,0.63,-2.33,5.53
2022-12-08 18:24:14.5550,-0.829,-0.536,-0.443,1.36,-2.28,3.6
2022-12-08 18:24:14.5650,-0.902,-0.592,-0.228,2.35,-2.06,1.27
2022-12-08 18:24:14.5750,-0.94,-0.639,-0.062,3.07,-1.52,-0.82
2022-12-08 18:24:14.5850,-0.917,-0.674,-0.017,3.44,-1.05,-2.45
2022-12-08 18:24:14.5950,-0.834,-0.694,-0.066,3.21,-0.7,-2.9
2022-12-08 18:24:14.6050,-0.753,-0.693,-0.158,2.38,-0.49,-2.43
2022-12-08 18:24:14.6150,-0.682,-0.686,-0.207,1.56,-0.48,-1.54
2022-12-08 18:24:14.6250,-0.624,-0.699,-0.217,0.84,-0.53,-1.06
2022-12-08 18:24:14.6350,-0.568,-0.709,-0.216,0.24,-0.38,-0.95
2022-12-08 18:24:14.6450,-0.514,-0.709,-0.211,-0.34,-0.26,-0.96
2022-12-08 18:24:14.6550,-0.467,-0.7,-0.203,-0.89,-0.24,-0.99
2022-12-08 18:24:14.6650,-0.427,-0.677,-0.2,-1.38,-0.31,-1.07
2022-12-08 18:24:14.6750,-0.404,-0.634,-0.213,-1.8,-0.52,-1.1
2022-12-08 18:24:14.6850,-0.37,-0.571,-0.24,-2.04,-0.92,-0.98
2022-12-08 18:24:14.6950,-0.327,-0.495,-0.267,-2.38,-1.51,-0.75
2022-12-08 18:24:14.7050,-0.292,-0.424,-0.3,-2.81,-2.24,-0.52
2022-12-08 18:24:14.7150,-0.257,-0.365,-0.323,-3.15,-2.91,-0.26
2022-12-08 18:24:14.7250,-0.243,-0.321,-0.335,-3.5,-3.47,-0.08
2022-12-08 18:24:14.7350,-0.252,-0.288,-0.346,-3.63,-3.88,-0.01
2022-12-08 18:24:14.7450,-0.289,-0.285,-0.351,-3.54,-4.19,0.07
2022-12-08 18:24:14.7550,-0.346,-0.316,-0.349,-3.17,-4.2,0.09
2022-12-08 18:24:14.7650,-0.403,-0.354,-0.314,-2.61,-3.9,0.05
2022-12-08 18:24:14.7750,-0.453,-0.39,-0.263,-2.05,-3.52,-0.31
2022-12-08 18:24:14.7850,-0.491,-0.418,-0.221,-1.56,-3.17,-0.81
2022-12-08 18:24:14.7950,-0.534,-0.453,-0.191,-1.17,-2.9,-1.22
2022-12-08 18:24:14.8050,-0.584,-0.499,-0.165,-0.75,-2.57,-1.51
2022-12-08 18:24:14.8150,-0.63,-0.559,-0.13,-0.26,-2.12,-1.74
2022-12-08 18:24:14.8250,-0.677,-0.632,-0.064,0.19,-1.54,-2.05
2022-12-08 18:24:14.8350,-0.72,-0.716,-0.006,0.63,-0.84,-2.65
2022-12-08 18:24:14.8450,-0.751,-0.817,0.03,1.04,-0.03,-3.17
2022-12-08 18:24:14.8550,-0.779,-0.945,0.015,1.32,0.95,-3.47
2022-12-08 18:24:14.8650,-0.797,-1.068,-0.052,1.59,2.2,-3.27
2022-12-08 18:24:14.8750,-0.824,-1.152,-0.145,2.03,4.23,-1.7
2022-12-08 18:24:14.8860,-0.821,-1.157,-0.254,2.03,4.23,-1.7
2022-12-08 18:24:14.8950,-0.821,-1.137,-0.359,2.02,4.28,-0.68
2022-12-08 18:24:14.9050,-0.828,-1.139,-0.387,2.03,4.09,0.3
2022-12-08 18:24:14.9150,-0.848,-1.17,-0.303,2.11,4.12,0.55
2022-12-08 18:24:14.9260,-0.937,-1.268,-0.168,2.31,4.4,-0.23
2022-12-08 18:24:14.9360,-1.023,-1.39,-0.045,3.18,5.33,-1.46
2022-12-08 18:24:14.9460,-1.074,-1.416,0.034,4.02,6.47,-2.55
2022-12-08 18:24:14.9560,-1.107,-1.385,-0.016,4.54,6.68,-3.23
2022-12-08 18:24:14.9660,-1.072,-1.278,-0.162,4.91,6.32,-2.71
2022-12-08 18:24:14.9760,-0.889,-1.008,-0.211,4.64,5.22,-1.28
2022-12-08 18:24:14.9860,-0.666,-0.73,-0.25,2.92,2.53,-0.85
2022-12-08 18:24:14.9960,-0.532,-0.536,-0.372,0.82,-0.23,-0.56
2022-12-08 18:24:15.0060,-0.551,-0.385,-0.579,-0.42,-2.13,0.51
2022-12-08 18:24:15.0160,-0.588,-0.246,-0.802,-0.18,-3.6,2.38
2022-12-08 18:24:15.0260,-0.576,-0.171,-0.905,0.25,-4.93,4.4
2022-12-08 18:24:15.0360,-0.521,-0.172,-0.894,0.19,-5.64,5.29
2022-12-08 18:24:15.0460,-0.454,-0.211,-0.826,-0.32,-5.64,5.13
2022-12-08 18:24:15.0560,-0.452,-0.279,-0.756,-0.98,-5.27,4.49
2022-12-08 18:24:15.0660,-0.519,-0.41,-0.716,-1.03,-4.62,3.88
2022-12-08 18:24:15.0760,-0.611,-0.611,-0.67,-0.41,-3.36,3.61
2022-12-08 18:24:15.0860,-0.694,-0.85,-0.58,0.47,-1.42,3.29
2022-12-08 18:24:15.0960,-0.723,-1.018,-0.494,1.28,0.88,2.5
2022-12-08 18:24:15.1060,-0.633,-0.976,-0.427,1.58,2.49,1.71
2022-12-08 18:24:15.1160,-0.478,-0.884,-0.384,0.74,2.04,1.07
2022-12-08 18:24:15.1260,-0.349,-0.812,-0.367,-0.73,1.11,0.64
2022-12-08 18:24:15.1360,-0.307,-0.756,-0.393,-1.97,0.37,0.47
2022-12-08 18:24:15.1460,-0.313,-0.746,-0.414,-2.36,-0.18,0.72
2022-12-08 18:24:15.1560,-0.358,-0.776,-0.398,-2.31,-0.28,0.93
2022-12-08 18:24:15.1660,-0.453,-0.838,-0.391,-1.89,0.04,0.78
2022-12-08 18:24:15.1760,-0.531,-0.872,-0.362,-0.98,0.67,0.69
2022-12-08 18:24:15.1860,-0.577,-0.911,-0.299,-0.22,1.01,0.38
2022-12-08 18:24:15.1960,-0.56,-0.878,-0.243,0.24,1.4,-0.26
2022-12-08 18:24:15.2060,-0.502,-0.736,-0.158,0.09,1.08,-0.86
2022-12-08 18:24:15.2160,-0.457,-0.604,-0.109,-0.45,-0.32,-1.73
2022-12-08 18:24:15.2260,-0.436,-0.521,-0.117,-0.86,-1.6,-2.26
2022-12-08 18:24:15.2360,-0.424,-0.482,-0.171,-1.04,-2.41,-2.24
2022-12-08 18:24:15.2460,-0.418,-0.446,-0.219,-1.14,-2.79,-1.77
2022-12-08 18:24:15.2560,-0.411,-0.42,-0.25,-1.17,-3.14,-1.36
2022-12-08 18:24:15.2660,-0.405,-0.413,-0.276,-1.21,-3.37,-1.11
2022-12-08 18:24:15.2760,-0.4,-0.419,-0.289,-1.25,-3.44,-0.89
2022-12-08 18:24:15.2860,-0.395,-0.442,-0.299,-1.28,-3.37,-0.82
2022-12-08 18:24:15.2960,-0.385,-0.475,-0.306,-1.33,-3.13,-0.76
2022-12-08 18:24:15.3060,-0.379,-0.521,-0.306,-1.41,-2.79,-0.73
2022-12-08 18:24:15.3160,-0.367,-0.569,-0.294,-1.47,-2.32,-0.77
2022-12-08 18:24:15.3270,-0.364,-0.606,-0.279,-1.59,-1.83,-0.91
2022-12-08 18:24:15.3360,-0.382,-0.64,-0.261,-1.63,-1.45,-1.09
2022-12-08 18:24:15.3470,-0.408,-0.682,-0.223,-1.47,-1.1,-1.29
2022-12-08 18:24:15.3570,-0.429,-0.72,-0.165,-1.23,-0.66,-1.69
2022-12-08 18:24:15.3670,-0.446,-0.765,-0.125,-1.05,-0.26,-2.27
2022-12-08 18:24:15.3770,-0.465,-0.806,-0.107,-0.91,0.2,-2.67
2022-12-08 18:24:15.3870,-0.498,-0.847,-0.124,-0.75,0.63,-2.85
2022-12-08 18:24:15.3970,-0.541,-0.886,-0.183,-0.46,1.05,-2.69
2022-12-08 18:24:15.4070,-0.575,-0.914,-0.268,-0.05,1.45,-2.11
2022-12-08 18:24:15.4170,-0.597,-0.932,-0.349,0.27,1.74,-1.28
2022-12-08 18:24:15.4270,-0.613,-0.952,-0.398,0.47,1.92,-0.48
2022-12-08 18:24:15.4370,-0.64,-0.979,-0.399,0.62,2.11,0.02
2022-12-08 18:24:15.4470,-0.661,-1.024,-0.349,0.87,2.37,0.05
2022-12-08 18:24:15.4570,-0.685,-1.08,-0.279,1.06,2.81,-0.4
2022-12-08 18:24:15.4670,-0.709,-1.138,-0.192,1.28,3.35,-1.06
2022-12-08 18:24:15.4770,-0.741,-1.217,-0.14,1.5,3.91,-1.88
2022-12-08 18:24:15.4870,-0.774,-1.285,-0.222,1.8,4.68,-2.35
2022-12-08 18:24:15.4970,-0.76,-1.275,-0.384,2.12,5.33,-1.5
2022-12-08 18:24:15.5070,-0.686,-1.213,-0.445,1.97,5.21,0.14
2022-12-08 18:24:15.5170,-0.623,-1.116,-0.416,1.24,4.58,0.81
2022-12-08 18:24:15.5270,-0.593,-1.032,-0.383,0.6,3.61,0.59
2022-12-08 18:24:15.5370,-0.591,-0.958,-0.363,0.28,2.77,0.35
2022-12-08 18:24:15.5470,-0.583,-0.87,-0.362,0.23,2.03,0.22
2022-12-08 18:24:15.5570,-0.582,-0.763,-0.421,0.13,1.16,0.27
2022-12-08 18:24:15.5670,-0.588,-0.676,-0.516,0.09,0.11,0.9
2022-12-08 18:24:15.5770,-0.59,-0.604,-0.586,0.11,-0.73,1.87
2022-12-08 18:24:15.5870,-0.58,-0.542,-0.65,0.12,-1.44,2.6
2022-12-08 18:24:15.5970,-0.567,-0.494,-0.727,0.0,-2.05,3.26
2022-12-08 18:24:15.6070,-0.576,-0.472,-0.822,-0.14,-2.52,4.04
2022-12-08 18:24:15.6170,-0.597,-0.483,-0.906,-0.07,-2.73,4.99
2022-12-08 18:24:15.6270,-0.628,-0.527,-0.931,0.14,-2.63,5.83
2022-12-08 18:24:15.6370,-0.674,-0.594,-0.842,0.44,-2.21,6.09
2022-12-08 18:24:15.6470,-0.776,-0.659,-0.631,0.89,-1.56,5.24
2022-12-08 18:24:15.6570,-0.877,-0.707,-0.373,1.9,-0.93,3.19
2022-12-08 18:24:15.6670,-0.927,-0.76,-0.162,2.88,-0.46,0.67
2022-12-08 18:24:15.6770,-0.938,-0.796,-0.031,3.37,0.06,-1.4
2022-12-08 18:24:15.6870,-0.886,-0.792,-0.02,3.47,0.43,-2.7
2022-12-08 18:24:15.6970,-0.802,-0.765,-0.101,2.94,0.4,-2.83
2022-12-08 18:24:15.7070,-0.725,-0.738,-0.18,2.1,0.16,-2.05
2022-12-08 18:24:15.7170,-0.659,-0.718,-0.231,1.31,-0.08,-1.28
2022-12-08 18:24:15.7270,-0.59,-0.709,-0.257,0.64,-0.25,-0.78
2022-12-08 18:24:15.7370,-0.528,-0.694,-0.27,-0.07,-0.31,-0.53
2022-12-08 18:24:15.7480,-0.467,-0.689,-0.275,-0.71,-0.43,-0.41
2022-12-08 18:24:15.7580,-0.421,-0.701,-0.28,-1.33,-0.46,-0.36
2022-12-08 18:24:15.7680,-0.395,-0.691,-0.285,-1.8,-0.32,-0.33
2022-12-08 18:24:15.7780,-0.371,-0.646,-0.294,-2.08,-0.39,-0.3
2022-12-08 18:24:15.7880,-0.338,-0.57,-0.306,-2.32,-0.81,-0.25
2022-12-08 18:24:15.7980,-0.307,-0.492,-0.311,-2.65,-1.53,-0.16
2022-12-08 18:24:15.8070,-0.268,-0.426,-0.316,-2.96,-2.27,-0.16
2022-12-08 18:24:15.8180,-0.247,-0.379,-0.32,-3.35,-2.9,-0.17
2022-12-08 18:24:15.8280,-0.251,-0.342,-0.324,-3.55,-3.33,-0.18
2022-12-08 18:24:15.8380,-0.275,-0.324,-0.319,-3.51,-3.67,-0.19
2022-12-08 18:24:15.8480,-0.323,-0.335,-0.308,-3.28,-3.83,-0.27
2022-12-08 18:24:15.8580,-0.38,-0.37,-0.298,-2.8,-3.71,-0.41
2022-12-08 18:24:15.8680,-0.421,-0.402,-0.264,-2.24,-3.36,-0.54
2022-12-08 18:24:15.8780,-0.45,-0.435,-0.224,-1.83,-3.04,-0.88
2022-12-08 18:24:15.8880,-0.479,-0.476,-0.191,-1.53,-2.72,-1.29
2022-12-08 18:24:15.8980,-0.513,-0.525,-0.161,-1.24,-2.33,-1.62
2022-12-08 18:24:15.9080,-0.559,-0.587,-0.133,-0.89,-1.85,-1.92
2022-12-08 18:24:15.9180,-0.622,-0.661,-0.094,-0.43,-1.25,-2.18
2022-12-08 18:24:15.9280,-0.688,-0.736,-0.041,0.18,-0.54,-2.54
2022-12-08 18:24:15.9380,-0.74,-0.787,0.009,0.82,0.18,-3.02
2022-12-08 18:24:15.9480,-0.781,-0.832,0.005,1.32,0.68,-3.48
2022-12-08 18:24:15.9580,-0.799,-0.895,-0.065,1.72,1.11,-3.41
2022-12-08 18:24:15.9680,-0.838,-0.991,-0.179,1.89,1.72,-2.71
2022-12-08 18:24:15.9780,-0.859,-1.042,-0.281,2.28,2.67,-1.6
2022-12-08 18:24:15.9880,-0.857,-1.027,-0.355,2.5,3.17,-0.65
2022-12-08 18:24:15.9980,-0.844,-1.007,-0.394,2.49,3.05,0.04
2022-12-08 18:24:16.0080,-0.836,-1.029,-0.341,2.37,2.85,0.38
2022-12-08 18:24:16.0180,-0.876,-1.108,-0.202,2.29,3.07,-0.12
2022-12-08 18:24:16.0280,-0.978,-1.23,-0.079,2.66,3.82,-1.41
2022-12-08 18:24:16.0380,-1.046,-1.363,-0.004,3.64,4.98,-2.49
2022-12-08 18:24:16.0480,-1.07,-1.403,-0.007,4.28,6.25,-3.12
2022-12-08 18:24:16.0580,-1.066,-1.341,-0.129,4.52,6.61,-3.03
2022-12-08 18:24:16.0680,-1.005,-1.232,-0.277,4.52,5.97,-1.83
2022-12-08 18:24:16.0780,-0.903,-1.064,-0.333,3.98,4.87,-0.39
2022-12-08 18:24:16.0880,-0.683,-0.777,-0.292,3.05,3.17,0.12
2022-12-08 18:24:16.0980,-0.588,-0.559,-0.343,0.96,0.34,-0.36
2022-12-08 18:24:16.1080,-0.599,-0.372,-0.566,0.09,-1.8,0.02
2022-12-08 18:24:16.1180,-0.595,-0.182,-0.75,0.27,-3.59,2.03
2022-12-08 18:24:16.1280,-0.56,-0.127,-0.87,0.29,-5.42,3.66
2022-12-08 18:24:16.1380,-0.498,-0.155,-0.862,0.0,-5.93,4.71
2022-12-08 18:24:16.1490,-0.465,-0.151,-0.809,-0.59,-5.64,4.57
2022-12-08 18:24:16.1590,-0.458,-0.213,-0.763,-0.91,-5.69,4.06
2022-12-08 18:24:16.1690,-0.518,-0.361,-0.734,-1.0,-5.1,3.68
2022-12-08 18:24:16.1780,-0.623,-0.563,-0.721,-0.45,-3.67,3.48
2022-12-08 18:24:16.1890,-0.717,-0.797,-0.651,0.55,-1.73,3.47
2022-12-08 18:24:16.1990,-0.752,-0.999,-0.568,1.47,0.53,2.87
2022-12-08 18:24:16.2090,-0.643,-0.983,-0.522,1.84,2.47,2.11
2022-12-08 18:24:16.2190,-0.492,-0.887,-0.478,0.81,2.28,1.67
2022-12-08 18:24:16.2290,-0.378,-0.837,-0.437,-0.63,1.3,1.25
2022-12-08 18:24:16.2390,-0.312,-0.788,-0.425,-1.7,0.77,0.87
2022-12-08 18:24:16.2490,-0.294,-0.758,-0.432,-2.33,0.26,0.78
2022-12-08 18:24:16.2590,-0.322,-0.753,-0.413,-2.51,-0.05,0.88
2022-12-08 18:24:16.2690,-0.41,-0.801,-0.412,-2.26,-0.1,0.72
2022-12-08 18:24:16.2790,-0.499,-0.847,-0.397,-1.41,0.39,0.72
2022-12-08 18:24:16.2890,-0.561,-0.874,-0.355,-0.56,0.85,0.57
2022-12-08 18:24:16.2990,-0.565,-0.839,-0.273,0.06,1.12,0.15
2022-12-08 18:24:16.3090,-0.528,-0.762,-0.176,0.11,0.78,-0.68
2022-12-08 18:24:16.3190,-0.481,-0.657,-0.1,-0.24,0.02,-1.66
2022-12-08 18:24:16.3290,-0.461,-0.567,-0.078,-0.68,-1.01,-2.44
2022-12-08 18:24:16.3390,-0.456,-0.51,-0.1,-0.85,-1.89,-2.7
2022-12-08 18:24:16.3490,-0.448,-0.474,-0.143,-0.88,-2.45,-2.52
2022-12-08 18:24:16.3590,-0.44,-0.449,-0.183,-0.93,-2.8,-2.14
2022-12-08 18:24:16.3690,-0.429,-0.437,-0.219,-0.99,-3.04,-1.78
2022-12-08 18:24:16.3790,-0.413,-0.436,-0.253,-1.09,-3.15,-1.47
2022-12-08 18:24:16.3890,-0.395,-0.453,-0.279,-1.23,-3.15,-1.18
2022-12-08 18:24:16.3990,-0.372,-0.488,-0.302,-1.39,-2.97,-0.96
2022-12-08 18:24:16.4090,-0.353,-0.529,-0.323,-1.61,-2.62,-0.77
2022-12-08 18:24:16.4190,-0.326,-0.569,-0.341,-1.79,-2.2,-0.59
2022-12-08 18:24:16.4290,-0.314,-0.597,-0.347,-2.05,-1.8,-0.44
2022-12-08 18:24:16.4390,-0.331,-0.638,-0.332,-2.17,-1.5,-0.41
2022-12-08 18:24:16.4490,-0.353,-0.674,-0.282,-2.02,-1.09,-0.59
2022-12-08 18:24:16.4590,-0.378,-0.717,-0.218,-1.82,-0.71,-1.09
2022-12-08 18:24:16.4690,-0.4,-0.752,-0.155,-1.59,-0.27,-1.73
2022-12-08 18:24:16.4790,-0.428,-0.788,-0.12,-1.39,0.09,-2.36
2022-12-08 18:24:16.4890,-0.467,-0.834,-0.132,-1.14,0.47,-2.72
2022-12-08 18:24:16.4990,-0.505,-0.872,-0.179,-0.78,0.94,-2.62
2022-12-08 18:24:16.5090,-0.543,-0.899,-0.261,-0.42,1.33,-2.16
2022-12-08 18:24:16.5190,-0.577,-0.915,-0.356,-0.05,1.61,-1.37
2022-12-08 18:24:16.5290,-0.61,-0.923,-0.425,0.27,1.78,-0.45
2022-12-08 18:24:16.5390,-0.658,-0.938,-0.442,0.59,1.86,0.22
2022-12-08 18:24:16.5490,-0.707,-0.97,-0.4,1.05,2.01,0.4
2022-12-08 18:24:16.5590,-0.749,-1.017,-0.316,1.52,2.33,-0.01
2022-12-08 18:24:16.5690,-0.785,-1.087,-0.222,1.92,2.79,-0.81
2022-12-08 18:24:16.5800,-0.821,-1.173,-0.142,2.25,3.47,-1.7
2022-12-08 18:24:16.5890,-0.851,-1.228,-0.126,2.59,4.31,-2.44
2022-12-08 18:24:16.5990,-0.835,-1.236,-0.218,2.87,4.84,-2.55
2022-12-08 18:24:16.6100,-0.763,-1.195,-0.299,2.69,4.9,-1.6
2022-12-08 18:24:16.6200,-0.685,-1.133,-0.34,1.97,4.49,-0.75
2022-12-08 18:24:16.6300,-0.646,-1.082,-0.371,1.18,3.86,-0.29
2022-12-08 18:24:16.6400,-0.628,-1.017,-0.362,0.78,3.34,0.09
2022-12-08 18:24:16.6500,-0.602,-0.935,-0.327,0.57,2.7,0.08
2022-12-08 18:24:16.6600,-0.576,-0.839,-0.342,0.27,1.88,-0.2
2022-12-08 18:24:16.6700,-0.57,-0.758,-0.424,-0.02,0.94,0.02
2022-12-08 18:24:16.6800,-0.568,-0.696,-0.525,-0.11,0.14,0.87
2022-12-08 18:24:16.6900,-0.575,-0.656,-0.618,-0.15,-0.47,1.92
2022-12-08 18:24:16.7000,-0.583,-0.622,-0.711,-0.11,-0.86,2.87
2022-12-08 18:24:16.7100,-0.586,-0.59,-0.791,-0.03,-1.2,3.81
2022-12-08 18:24:16.7200,-0.56,-0.539,-0.873,-0.01,-1.52,4.63
2022-12-08 18:24:16.7300,-0.575,-0.549,-0.958,-0.27,-2.02,5.44
2022-12-08 18:24:16.7400,-0.606,-0.58,-0.963,-0.11,-1.93,6.28
2022-12-08 18:24:16.7500,-0.653,-0.623,-0.885,0.2,-1.63,6.33
2022-12-08 18:24:16.7600,-0.747,-0.663,-0.69,0.67,-1.22,5.56
2022-12-08 18:24:16.7700,-0.825,-0.681,-0.441,1.59,-0.83,3.64
2022-12-08 18:24:16.7800,-0.868,-0.689,-0.21,2.37,-0.65,1.19
2022-12-08 18:24:16.7900,-0.867,-0.693,-0.041,2.79,-0.57,-1.08
2022-12-08 18:24:16.8000,-0.818,-0.683,0.014,2.78,-0.52,-2.76
2022-12-08 18:24:16.8100,-0.751,-0.67,-0.036,2.28,-0.59,-3.33
2022-12-08 18:24:16.8200,-0.676,-0.663,-0.125,1.61,-0.7,-2.87
2022-12-08 18:24:16.8300,-0.612,-0.662,-0.187,0.86,-0.74,-2.01
2022-12-08 18:24:16.8400,-0.554,-0.665,-0.215,0.2,-0.72,-1.43
2022-12-08 18:24:16.8500,-0.502,-0.668,-0.222,-0.39,-0.67,-1.16
2022-12-08 18:24:16.8600,-0.46,-0.665,-0.223,-0.93,-0.62,-1.1
2022-12-08 18:24:16.8700,-0.433,-0.662,-0.218,-1.37,-0.62,-1.1
2022-12-08 18:24:16.8800,-0.412,-0.643,-0.219,-1.66,-0.62,-1.17
2022-12-08 18:24:16.8900,-0.387,-0.585,-0.226,-1.88,-0.77,-1.18
2022-12-08 18:24:16.9000,-0.356,-0.522,-0.241,-2.14,-1.32,-1.15
2022-12-08 18:24:16.9100,-0.328,-0.458,-0.263,-2.45,-1.91,-1.05
2022-12-08 18:24:16.9200,-0.307,-0.409,-0.287,-2.73,-2.5,-0.89
2022-12-08 18:24:16.9300,-0.289,-0.371,-0.323,-3.11,-3.3,-0.41
2022-12-08 18:24:16.9420,-0.275,-0.331,-0.355,-3.11,-3.3,-0.41
2022-12-08 18:24:16.9500,-0.28,-0.308,-0.383,-3.24,-3.67,-0.16
2022-12-08 18:24:16.9600,-0.316,-0.32,-0.405,-3.18,-3.87,0.07
2022-12-08 18:24:16.9700,-0.373,-0.362,-0.406,-2.83,-3.74,0.24
2022-12-08 18:24:16.9800,-0.434,-0.416,-0.371,-2.25,-3.33,0.23
2022-12-08 18:24:16.9900,-0.487,-0.472,-0.318,-1.64,-2.79,-0.14
2022-12-08 18:24:17.0000,-0.543,-0.526,-0.277,-1.1,-2.25,-0.67
2022-12-08 18:24:17.0100,-0.6,-0.589,-0.245,-0.55,-1.73,-1.09
2022-12-08 18:24:17.0210,-0.649,-0.656,-0.191,0.03,-1.13,-1.4
2022-12-08 18:24:17.0300,-0.71,-0.728,-0.111,0.52,-0.48,-1.92
2022-12-08 18:24:17.0400,-0.763,-0.798,-0.014,1.12,0.21,-2.68
2022-12-08 18:24:17.0510,-0.809,-0.874,0.056,1.63,0.88,-3.58
2022-12-08 18:24:17.0610,-0.844,-0.959,0.06,2.06,1.61,-4.21
2022-12-08 18:24:17.0710,-0.851,-1.051,-0.0,2.39,2.43,-4.19
2022-12-08 18:24:17.0810,-0.848,-1.13,-0.079,2.44,3.33,-3.56
2022-12-08 18:24:17.0910,-0.846,-1.171,-0.171,2.39,4.1,-2.77
2022-12-08 18:24:17.1010,-0.845,-1.15,-0.272,2.37,4.52,-1.88
2022-12-08 18:24:17.1110,-0.852,-1.116,-0.354,2.37,4.32,-0.93
2022-12-08 18:24:17.1210,-0.902,-1.132,-0.369,2.44,4.0,-0.16
2022-12-08 18:24:17.1310,-1.022,-1.194,-0.334,2.93,4.16,-0.01
2022-12-08 18:24:17.1410,-1.125,-1.276,-0.252,4.11,4.75,-0.33
2022-12-08 18:24:17.1510,-1.197,-1.343,-0.235,5.12,5.54,-1.1
2022-12-08 18:24:17.1610,-1.207,-1.323,-0.262,5.84,6.18,-1.24
2022-12-08 18:24:17.1710,-1.194,-1.233,-0.308,5.97,5.96,-0.99
2022-12-08 18:24:17.1810,-1.069,-1.012,-0.36,5.9,5.05,-0.58
2022-12-08 18:24:17.1910,-0.816,-0.657,-0.417,4.74,2.86,-0.14
2022-12-08 18:24:17.2010,-0.67,-0.415,-0.563,2.35,-0.62,0.29
2022-12-08 18:24:17.2110,-0.518,-0.165,-0.736,0.99,-2.98,1.58
2022-12-08 18:24:17.2210,-0.379,0.018,-0.789,-0.44,-5.42,3.16
2022-12-08 18:24:17.2310,-0.387,0.012,-0.834,-1.76,-7.21,3.62
2022-12-08 18:24:17.2410,-0.407,-0.075,-0.858,-1.67,-7.16,4.06
2022-12-08 18:24:17.2510,-0.391,-0.196,-0.823,-1.48,-6.32,4.34
2022-12-08 18:24:17.2610,-0.465,-0.382,-0.867,-1.66,-5.16,4.06
2022-12-08 18:24:17.2710,-0.548,-0.568,-0.888,-0.95,-3.37,4.58
2022-12-08 18:24:17.2810,-0.602,-0.751,-0.763,-0.14,-1.59,4.87
2022-12-08 18:24:17.2910,-0.616,-0.862,-0.658,0.41,0.16,3.72
2022-12-08 18:24:17.3010,-0.516,-0.862,-0.588,0.58,1.2,2.73
2022-12-08 18:24:17.3110,-0.383,-0.836,-0.518,-0.35,1.16,2.06
2022-12-08 18:24:17.3210,-0.291,-0.816,-0.458,-1.61,0.86,1.37
2022-12-08 18:24:17.3310,-0.27,-0.784,-0.441,-2.48,0.63,0.81
2022-12-08 18:24:17.3410,-0.278,-0.771,-0.446,-2.68,0.3,0.67
2022-12-08 18:24:17.3510,-0.318,-0.782,-0.447,-2.62,0.16,0.77
2022-12-08 18:24:17.3610,-0.378,-0.808,-0.418,-2.27,0.27,0.82
2022-12-08 18:24:17.3710,-0.45,-0.828,-0.378,-1.71,0.54,0.57
2022-12-08 18:24:17.3810,-0.504,-0.83,-0.323,-1.03,0.75,0.18
2022-12-08 18:24:17.3910,-0.514,-0.796,-0.251,-0.51,0.78,-0.36
2022-12-08 18:24:17.4010,-0.481,-0.722,-0.188,-0.41,0.46,-1.09
2022-12-08 18:24:17.4110,-0.432,-0.629,-0.135,-0.72,-0.27,-1.73
2022-12-08 18:24:17.4210,-0.395,-0.538,-0.109,-1.19,-1.17,-2.29
2022-12-08 18:24:17.4310,-0.385,-0.486,-0.136,-1.54,-2.05,-2.58
2022-12-08 18:24:17.4420,-0.38,-0.453,-0.179,-1.63,-2.55,-2.35
2022-12-08 18:24:17.4520,-0.38,-0.431,-0.214,-1.66,-2.88,-1.97
2022-12-08 18:24:17.4620,-0.385,-0.425,-0.251,-1.64,-3.08,-1.66
2022-12-08 18:24:17.4720,-0.386,-0.427,-0.283,-1.58,-3.14,-1.32
2022-12-08 18:24:17.4820,-0.386,-0.445,-0.309,-1.56,-3.11,-1.03
2022-12-08 18:24:17.4920,-0.387,-0.473,-0.334,-1.55,-2.93,-0.8
2022-12-08 18:24:17.5020,-0.39,-0.513,-0.361,-1.54,-2.65,-0.59
2022-12-08 18:24:17.5120,-0.389,-0.566,-0.378,-1.51,-2.23,-0.35
2022-12-08 18:24:17.5220,-0.382,-0.612,-0.373,-1.53,-1.7,-0.21
2022-12-08 18:24:17.5320,-0.388,-0.653,-0.358,-1.6,-1.22,-0.27
2022-12-08 18:24:17.5420,-0.411,-0.691,-0.321,-1.56,-0.8,-0.45
2022-12-08 18:24:17.5520,-0.431,-0.73,-0.253,-1.36,-0.4,-0.82
2022-12-08 18:24:17.5620,-0.44,-0.762,-0.189,-1.19,0.01,-1.5
2022-12-08 18:24:17.5720,-0.456,-0.803,-0.151,-1.13,0.35,-2.13
2022-12-08 18:24:17.5820,-0.473,-0.844,-0.143,-1.01,0.78,-2.51
2022-12-08 18:24:17.5920,-0.506,-0.884,-0.175,-0.88,1.2,-2.58
2022-12-08 18:24:17.6020,-0.539,-0.914,-0.23,-0.59,1.62,-2.26
2022-12-08 18:24:17.6120,-0.571,-0.94,-0.296,-0.29,1.94,-1.72
2022-12-08 18:24:17.6220,-0.601,-0.949,-0.367,0.0,2.2,-1.06
2022-12-08 18:24:17.6320,-0.629,-0.946,-0.407,0.28,2.3,-0.37
2022-12-08 18:24:17.6420,-0.664,-0.939,-0.4,0.54,2.28,0.04
2022-12-08 18:24:17.6520,-0.697,-0.944,-0.365,0.87,2.21,-0.01
2022-12-08 18:24:17.6620,-0.721,-0.979,-0.301,1.18,2.26,-0.33
2022-12-08 18:24:17.6720,-0.761,-1.072,-0.277,1.39,2.6,-0.92
2022-12-08 18:24:17.6820,-0.787,-1.163,-0.332,1.76,3.5,-1.12
2022-12-08 18:24:17.6920,-0.79,-1.211,-0.432,2.01,4.39,-0.53
2022-12-08 18:24:17.7020,-0.76,-1.22,-0.474,2.02,4.84,0.5
2022-12-08 18:24:17.7120,-0.724,-1.212,-0.461,1.7,4.92,0.98
2022-12-08 18:24:17.7220,-0.695,-1.184,-0.413,1.33,4.81,0.91
2022-12-08 18:24:17.7320,-0.667,-1.15,-0.371,1.02,4.53,0.5
2022-12-08 18:24:17.7420,-0.628,-1.1,-0.383,0.7,4.2,0.14
2022-12-08 18:24:17.7520,-0.582,-1.018,-0.433,0.29,3.72,0.31
2022-12-08 18:24:17.7620,-0.552,-0.922,-0.491,-0.19,2.92,0.84
2022-12-08 18:24:17.7720,-0.551,-0.814,-0.558,-0.51,1.98,1.44
2022-12-08 18:24:17.7820,-0.538,-0.73,-0.622,-0.55,0.94,2.12
2022-12-08 18:24:17.7920,-0.529,-0.649,-0.674,-0.69,0.11,2.76
2022-12-08 18:24:17.8020,-0.508,-0.514,-0.783,-0.79,-0.67,3.27
2022-12-08 18:24:17.8120,-0.535,-0.474,-0.872,-1.0,-1.98,4.33
2022-12-08 18:24:17.8220,-0.574,-0.469,-0.9,-0.74,-2.36,5.19
2022-12-08 18:24:17.8320,-0.631,-0.443,-0.884,-0.37,-2.41,5.46
2022-12-08 18:24:17.8430,-0.72,-0.428,-0.783,0.2,-2.67,5.31
2022-12-08 18:24:17.8530,-0.79,-0.449,-0.565,1.07,-2.82,4.33
2022-12-08 18:24:17.8620,-0.829,-0.474,-0.345,1.76,-2.61,2.19
2022-12-08 18:24:17.8730,-0.866,-0.535,-0.155,2.14,-2.36,0.03
2022-12-08 18:24:17.8820,-0.873,-0.597,-0.063,2.5,-1.76,-1.85
2022-12-08 18:24:17.8930,-0.844,-0.626,-0.078,2.56,-1.13,-2.78
2022-12-08 18:24:17.9030,-0.801,-0.642,-0.167,2.27,-0.82,-2.67
2022-12-08 18:24:17.9130,-0.751,-0.63,-0.258,1.82,-0.63,-1.82
2022-12-08 18:24:17.9230,-0.695,-0.628,-0.307,1.31,-0.71,-0.96
2022-12-08 18:24:17.9330,-0.653,-0.64,-0.329,0.72,-0.7,-0.49
2022-12-08 18:24:17.9430,-0.654,-0.658,-0.343,0.27,-0.54,-0.28
2022-12-08 18:24:17.9530,-0.663,-0.745,-0.35,0.23,-0.31,-0.14
2022-12-08 18:24:17.9630,-0.641,-0.761,-0.353,0.26,0.58,-0.07
2022-12-08 18:24:17.9730,-0.632,-0.755,-0.329,0.02,0.77,-0.03
2022-12-08 18:24:17.9830,-0.578,-0.697,-0.303,-0.08,0.71,-0.27
2022-12-08 18:24:17.9930,-0.559,-0.67,-0.307,-0.6,0.14,-0.53
2022-12-08 18:24:18.0030,-0.513,-0.619,-0.332,-0.77,-0.13,-0.51
2022-12-08 18:24:18.0130,-0.476,-0.566,-0.36,-1.19,-0.64,-0.29
2022-12-08 18:24:18.0230,-0.375,-0.479,-0.349,-1.54,-1.16,-0.04
2022-12-08 18:24:18.0330,-0.31,-0.408,-0.295,-2.51,-2.02,-0.17
2022-12-08 18:24:18.0430,-0.291,-0.353,-0.289,-3.13,-2.73,-0.72
2022-12-08 18:24:18.0530,-0.293,-0.309,-0.287,-3.3,-3.27,-0.79
2022-12-08 18:24:18.0630,-0.256,-0.287,-0.291,-3.29,-3.69,-0.82
2022-12-08 18:24:18.0730,-0.274,-0.307,-0.268,-3.66,-3.9,-0.78
2022-12-08 18:24:18.0830,-0.334,-0.364,-0.272,-3.5,-3.7,-0.99
2022-12-08 18:24:18.0930,-0.374,-0.426,-0.239,-2.93,-3.13,-0.92
2022-12-08 18:24:18.1030,-0.365,-0.527,-0.171,-2.57,-2.52,-1.21
2022-12-08 18:24:18.1130,-0.311,-0.645,-0.095,-2.7,-1.52,-1.83
2022-12-08 18:24:18.1230,-0.612,-0.529,-0.051,-3.28,-0.33,-2.54
2022-12-08 18:24:18.1330,-0.726,-0.53,-0.041,-0.37,-1.44,-2.93
2022-12-08 18:24:18.1430,-0.726,-0.597,-0.111,0.71,-1.41,-3.0
2022-12-08 18:24:18.1530,-0.739,-0.624,-0.165,0.69,-0.75,-2.3
2022-12-08 18:24:18.1630,-0.734,-0.644,-0.189,0.8,-0.48,-1.75
2022-12-08 18:24:18.1730,-0.713,-0.698,-0.217,0.75,-0.29,-1.49
2022-12-08 18:24:18.1830,-0.727,-0.818,-0.256,0.55,0.23,-1.2
2022-12-08 18:24:18.1930,-0.81,-0.923,-0.28,0.7,1.39,-0.8
2022-12-08 18:24:18.2030,-0.906,-0.979,-0.285,1.52,2.4,-0.54
2022-12-08 18:24:18.2130,-1.003,-1.009,-0.276,2.47,2.94,-0.48
2022-12-08 18:24:18.2230,-1.102,-1.024,-0.257,3.43,3.21,-0.54
2022-12-08 18:24:18.2330,-1.168,-1.045,-0.234,4.41,3.33,-0.68
2022-12-08 18:24:18.2430,-1.215,-1.074,-0.22,5.07,3.48,-0.84
2022-12-08 18:24:18.2540,-1.229,-1.131,-0.226,5.56,3.71,-0.91
2022-12-08 18:24:18.2630,-1.172,-1.21,-0.236,5.73,4.21,-0.78
2022-12-08 18:24:18.2740,-1.089,-1.258,-0.238,5.22,4.91,-0.61
2022-12-08 18:24:18.2830,-1.007,-1.224,-0.316,4.45,5.32,-0.53
2022-12-08 18:24:18.2940,-0.909,-1.104,-0.434,3.7,4.93,0.28
2022-12-08 18:24:18.3030,-0.759,-0.895,-0.58,2.77,3.7,1.48
2022-12-08 18:24:18.3140,-0.666,-0.706,-0.643,1.33,1.61,2.94
2022-12-08 18:24:18.3240,-0.639,-0.544,-0.616,0.41,-0.26,3.6
2022-12-08 18:24:18.3340,-0.662,-0.418,-0.515,0.13,-1.85,3.4
2022-12-08 18:24:18.3440,-0.679,-0.35,-0.425,0.3,-3.07,2.49
2022-12-08 18:24:18.3540,-0.702,-0.344,-0.283,0.39,-3.71,1.71
2022-12-08 18:24:18.3640,-0.727,-0.354,-0.226,0.52,-3.72,0.4
2022-12-08 18:24:18.3740,-0.739,-0.399,-0.244,0.67,-3.56,-0.06
2022-12-08 18:24:18.3840,-0.743,-0.431,-0.299,0.66,-3.04,0.21
2022-12-08 18:24:18.3940,-0.78,-0.5,-0.357,0.57,-2.63,0.86
2022-12-08 18:24:18.4040,-0.819,-0.549,-0.387,0.8,-1.84,1.55
2022-12-08 18:24:18.4140,-0.866,-0.596,-0.388,1.04,-1.26,1.96
2022-12-08 18:24:18.4240,-0.894,-0.63,-0.372,1.38,-0.69,2.1
2022-12-08 18:24:18.4340,-0.869,-0.659,-0.386,1.53,-0.26,2.06
2022-12-08 18:24:18.4440,-0.843,-0.677,-0.318,1.19,0.11,2.31
2022-12-08 18:24:18.4540,-0.843,-0.654,-0.247,0.83,0.38,1.74
2022-12-08 18:24:18.4640,-0.799,-0.63,-0.256,0.75,0.25,1.12
2022-12-08 18:24:18.4740,-0.754,-0.613,-0.229,0.22,0.1,1.28
2022-12-08 18:24:18.4840,-0.74,-0.579,-0.2,-0.29,0.03,1.07
2022-12-08 18:24:18.4940,-0.744,-0.541,-0.149,-0.52,-0.21,0.83
2022-12-08 18:24:18.5040,-0.726,-0.517,-0.087,-0.55,-0.49,0.37
2022-12-08 18:24:18.5140,-0.673,-0.473,-0.028,-0.81,-0.62,-0.2
2022-12-08 18:24:18.5240,-0.663,-0.426,-0.004,-1.42,-0.94,-0.75
2022-12-08 18:24:18.5340,-0.653,-0.402,-0.028,-1.6,-1.27,-0.97
2022-12-08 18:24:18.5440,-0.643,-0.393,-0.059,-1.77,-1.4,-0.71
2022-12-08 18:24:18.5540,-0.635,-0.388,-0.111,-1.94,-1.38,-0.38
2022-12-08 18:24:18.5640,-0.638,-0.374,-0.167,-2.09,-1.31,0.14
2022-12-08 18:24:18.5740,-0.598,-0.361,-0.195,-2.13,-1.35,0.72
2022-12-08 18:24:18.5840,-0.567,-0.336,-0.187,-2.58,-1.37,1.03
2022-12-08 18:24:18.5940,-0.536,-0.322,-0.161,-2.95,-1.52,0.98
2022-12-08 18:24:18.6040,-0.523,-0.316,-0.099,-3.33,-1.54,0.76
2022-12-08 18:24:18.6140,-0.55,-0.311,-0.034,-3.52,-1.48,0.18
2022-12-08 18:24:18.6240,-0.597,-0.296,-0.006,-3.33,-1.39,-0.45
2022-12-08 18:24:18.6340,-0.683,-0.341,0.005,-2.94,-1.4,-0.73
2022-12-08 18:24:18.6440,-0.789,-0.392,0.007,-2.16,-0.81,-0.87
2022-12-08 18:24:18.6540,-0.846,-0.448,0.02,-1.18,-0.18,-0.93
2022-12-08 18:24:18.6640,-0.838,-0.491,0.073,-0.66,0.49,-1.08
2022-12-08 18:24:18.6740,-0.89,-0.534,0.049,-0.79,1.02,-1.6
2022-12-08 18:24:18.6840,-0.926,-0.557,0.023,0.0,1.85,-1.03
2022-12-08 18:24:18.6970,-0.949,-0.487,0.02,0.0,1.85,-1.03
2022-12-08 18:24:18.7050,-0.892,-0.437,-0.023,0.18,1.25,-0.97
2022-12-08 18:24:18.7140,-0.876,-0.491,-0.055,-0.41,0.85,-0.55
2022-12-08 18:24:18.7250,-0.899,-0.475,-0.015,-0.6,1.48,-0.23
2022-12-08 18:24:18.7350,-0.946,-0.441,0.037,-0.42,1.41,-0.61
2022-12-08 18:24:18.7450,-0.948,-0.356,0.111,0.01,1.19,-1.1
2022-12-08 18:24:18.7550,-0.922,-0.171,0.127,-0.01,0.47,-1.83
2022-12-08 18:24:18.7650,-0.864,-0.085,0.12,-0.31,-1.21,-2.01
2022-12-08 18:24:18.7750,-1.024,-0.304,0.057,-0.92,-1.91,-1.96
2022-12-08 18:24:18.7850,-1.195,-0.352,0.056,0.61,0.38,-1.34
2022-12-08 18:24:18.7950,-1.234,-0.344,0.066,2.26,0.96,-1.31
2022-12-08 18:24:18.8050,-1.262,-0.407,0.0,2.62,0.97,-1.37
2022-12-08 18:24:18.8150,-1.274,-0.375,-0.111,2.87,1.64,-0.67
2022-12-08 18:24:18.8250,-1.218,-0.302,-0.178,2.97,1.37,0.5
2022-12-08 18:24:18.8350,-1.206,-0.269,-0.196,2.41,0.69,1.23
2022-12-08 18:24:18.8450,-1.312,-0.317,-0.175,2.28,0.43,1.48
2022-12-08 18:24:18.8550,-1.446,-0.324,-0.148,3.3,0.97,1.34
2022-12-08 18:24:18.8650,-1.499,-0.351,-0.132,4.6,1.11,1.12
2022-12-08 18:24:18.8750,-1.538,-0.411,-0.163,5.11,1.41,1.0
2022-12-08 18:24:18.8850,-1.527,-0.357,-0.25,5.49,2.0,1.36
2022-12-08 18:24:18.8950,-1.404,-0.239,-0.206,5.4,1.41,2.29
2022-12-08 18:24:18.9050,-1.25,-0.053,-0.072,4.21,0.15,1.96
2022-12-08 18:24:18.9150,-1.079,0.098,-0.055,2.72,-1.79,0.74
2022-12-08 18:24:18.9250,-0.934,0.203,-0.282,1.08,-3.41,0.65
2022-12-08 18:24:18.9350,-0.7,0.369,-0.399,-0.31,-4.57,2.94
2022-12-08 18:24:18.9450,-0.604,0.378,-0.297,-2.58,-6.3,4.14
2022-12-08 18:24:18.9550,-0.724,0.22,-0.036,-3.49,-6.48,3.21
2022-12-08 18:24:18.9650,-0.721,0.261,0.107,-2.28,-5.01,0.74
2022-12-08 18:24:18.9750,-0.596,0.291,0.04,-2.29,-5.48,-0.53
2022-12-08 18:24:18.9850,-0.493,0.269,0.213,-3.49,-5.8,0.28
2022-12-08 18:24:18.9950,-0.421,0.22,0.348,-4.48,-5.6,-1.24
2022-12-08 18:24:19.0050,-0.421,0.226,0.359,-5.18,-5.09,-2.37
2022-12-08 18:24:19.0150,-0.432,0.203,0.449,-5.18,-5.09,-2.33
2022-12-08 18:24:19.0250,-0.446,0.187,0.555,-5.09,-4.79,-3.13
2022-12-08 18:24:19.0350,-0.479,0.178,0.481,-4.97,-4.51,-4.14
2022-12-08 18:24:19.0450,-0.478,0.172,0.384,-4.7,-4.29,-3.45
2022-12-08 18:24:19.0550,-0.398,0.183,0.272,-4.76,-4.07,-2.6
2022-12-08 18:24:19.0650,-0.313,0.216,0.194,-5.6,-3.98,-1.62
2022-12-08 18:24:19.0750,-0.301,0.227,0.166,-6.51,-4.07,-1.01
2022-12-08 18:24:19.0850,-0.429,0.162,0.14,-6.7,-3.89,-0.9
2022-12-08 18:24:19.0950,-0.514,0.026,0.199,-5.5,-2.94,-0.87
2022-12-08 18:24:19.1050,-0.646,-0.148,0.492,-4.72,-1.28,-1.72
2022-12-08 18:24:19.1150,-0.89,-0.401,0.657,-3.46,0.73,-4.92
2022-12-08 18:24:19.1260,-0.99,-0.654,0.77,-1.07,3.46,-6.92
2022-12-08 18:24:19.1360,-0.949,-0.851,0.862,-0.06,6.13,-8.44
2022-12-08 18:24:19.1460,-0.97,-0.973,0.84,-0.41,8.19,-9.79
2022-12-08 18:24:19.1560,-1.085,-1.057,0.594,-0.13,9.49,-10.02
2022-12-08 18:24:19.1660,-1.331,-1.159,0.2,1.09,10.37,-8.05
2022-12-08 18:24:19.1760,-1.687,-1.254,-0.327,3.61,11.41,-4.62
2022-12-08 18:24:19.1860,-1.935,-1.302,-0.925,7.23,12.31,0.13
2022-12-08 18:24:19.1960,-1.982,-1.251,-1.494,10.46,11.99,10.71
2022-12-08 18:24:19.2080,-1.904,-1.035,-1.925,10.46,11.99,10.71
2022-12-08 18:24:19.2160,-1.595,-0.722,-2.116,9.95,9.59,14.43
2022-12-08 18:24:19.2260,-1.169,-0.315,-2.083,7.25,6.2,15.74
2022-12-08 18:24:19.2360,-0.771,0.024,-1.991,3.51,1.92,14.79
2022-12-08 18:24:19.2460,-0.45,0.155,-1.894,0.15,-1.64,13.24
2022-12-08 18:24:19.2560,-0.32,0.161,-1.781,-2.4,-3.1,11.69
2022-12-08 18:24:19.2660,-0.313,0.186,-1.659,-3.05,-3.31,10.05
2022-12-08 18:24:19.2760,-0.314,0.181,-1.477,-2.53,-3.71,8.44
2022-12-08 18:24:19.2860,-0.342,0.151,-1.259,-2.01,-3.85,6.35
2022-12-08 18:24:19.2960,-0.391,0.15,-1.092,-1.31,-3.75,4.01
2022-12-08 18:24:19.3060,-0.468,0.138,-1.016,-0.49,-3.93,2.25
2022-12-08 18:24:19.3160,-0.574,0.099,-0.971,0.55,-3.98,1.41
2022-12-08 18:24:19.3260,-0.707,0.054,-0.928,1.85,-3.75,0.9
2022-12-08 18:24:19.3360,-0.828,0.019,-0.859,3.41,-3.43,0.41
2022-12-08 18:24:19.3460,-0.88,-0.019,-0.783,4.85,-3.19,-0.33
2022-12-08 18:24:19.3560,-0.927,-0.088,-0.7,5.62,-2.88,-1.15
2022-12-08 18:24:19.3660,-0.959,-0.151,-0.639,6.37,-2.24,-2.04
2022-12-08 18:24:19.3760,-0.951,-0.177,-0.607,6.95,-1.65,-2.71
2022-12-08 18:24:19.3860,-0.837,-0.192,-0.564,7.14,-1.39,-3.09
2022-12-08 18:24:19.3960,-0.71,-0.205,-0.532,6.27,-1.22,-3.58
2022-12-08 18:24:19.4060,-0.639,-0.197,-0.576,5.24,-1.04,-3.95
2022-12-08 18:24:19.4160,-0.57,-0.172,-0.67,4.72,-1.04,-3.57
2022-12-08 18:24:19.4260,-0.502,-0.137,-0.749,4.19,-1.19,-2.71
2022-12-08 18:24:19.4360,-0.457,-0.118,-0.837,3.65,-1.43,-1.99
2022-12-08 18:24:19.4460,-0.428,-0.102,-0.913,3.31,-1.51,-1.17
2022-12-08 18:24:19.4560,-0.402,-0.086,-0.948,3.09,-1.56,-0.46
2022-12-08 18:24:19.4660,-0.383,-0.064,-0.978,2.9,-1.62,-0.14
2022-12-08 18:24:19.4760,-0.349,-0.045,-1.011,2.76,-1.76,0.12
2022-12-08 18:24:19.4860,-0.31,-0.029,-1.008,2.46,-1.89,0.43
2022-12-08 18:24:19.4960,-0.278,-0.024,-1.02,2.09,-1.99,0.39
2022-12-08 18:24:19.5060,-0.26,-0.032,-1.047,1.78,-2.01,0.5
2022-12-08 18:24:19.5170,-0.257,-0.053,-1.037,1.58,-1.92,0.76
2022-12-08 18:24:19.5260,-0.257,-0.082,-0.995,1.54,-1.71,0.66
2022-12-08 18:24:19.5360,-0.256,-0.111,-0.963,1.51,-1.43,0.26
2022-12-08 18:24:19.5470,-0.254,-0.133,-0.929,1.47,-1.16,-0.06
2022-12-08 18:24:19.5570,-0.251,-0.145,-0.903,1.42,-0.95,-0.38
2022-12-08 18:24:19.5670,-0.24,-0.15,-0.886,1.36,-0.83,-0.63
2022-12-08 18:24:19.5770,-0.223,-0.142,-0.889,1.22,-0.78,-0.79
2022-12-08 18:24:19.5870,-0.197,-0.121,-0.884,1.02,-0.84,-0.77
2022-12-08 18:24:19.5970,-0.157,-0.1,-0.893,0.74,-1.03,-0.81
2022-12-08 18:24:19.6070,-0.12,-0.073,-0.898,0.33,-1.22,-0.73
2022-12-08 18:24:19.6170,-0.087,-0.055,-0.904,-0.05,-1.47,-0.69
2022-12-08 18:24:19.6270,-0.057,-0.058,-0.9,-0.38,-1.63,-0.63
2022-12-08 18:24:19.6370,-0.039,-0.07,-0.868,-0.66,-1.59,-0.66
2022-12-08 18:24:19.6470,-0.034,-0.093,-0.805,-0.84,-1.48,-0.98
2022-12-08 18:24:19.6570,-0.032,-0.124,-0.741,-0.88,-1.27,-1.59
2022-12-08 18:24:19.6670,-0.035,-0.157,-0.683,-0.9,-1.0,-2.22
2022-12-08 18:24:19.6770,-0.033,-0.188,-0.638,-0.89,-0.71,-2.78
2022-12-08 18:24:19.6870,-0.039,-0.216,-0.612,-0.92,-0.43,-3.21
2022-12-08 18:24:19.6970,-0.042,-0.244,-0.599,-0.89,-0.18,-3.45
2022-12-08 18:24:19.7070,-0.047,-0.272,-0.617,-0.88,0.08,-3.57
2022-12-08 18:24:19.7190,-0.055,-0.292,-0.651,-0.86,0.35,-3.39
2022-12-08 18:24:19.7270,-0.053,-0.305,-0.689,-0.8,0.54,-3.05
2022-12-08 18:24:19.7370,-0.048,-0.299,-0.736,-0.9,0.62,-2.22
2022-12-08 18:24:19.7490,-0.041,-0.29,-0.787,-0.9,0.62,-2.22
2022-12-08 18:24:19.7570,-0.032,-0.28,-0.815,-0.97,0.54,-1.72
2022-12-08 18:24:19.7670,-0.036,-0.258,-0.818,-1.05,0.44,-1.45
2022-12-08 18:24:19.7770,-0.048,-0.235,-0.818,-1.02,0.23,-1.42
2022-12-08 18:24:19.7870,-0.059,-0.217,-0.805,-0.9,0.0,-1.42
2022-12-08 18:24:19.7970,-0.083,-0.19,-0.788,-0.81,-0.18,-1.54
2022-12-08 18:24:19.8070,-0.107,-0.153,-0.778,-0.4,-0.82,-1.79
2022-12-08 18:24:19.8190,-0.113,-0.129,-0.779,-0.4,-0.82,-1.79
2022-12-08 18:24:19.8270,-0.12,-0.105,-0.801,-0.4,-1.07,-1.77
2022-12-08 18:24:19.8370,-0.122,-0.061,-0.845,-0.42,-1.33,-1.54
2022-12-08 18:24:19.8470,-0.131,-0.018,-0.894,-0.51,-1.79,-1.08
2022-12-08 18:24:19.8570,-0.172,0.031,-0.952,-0.58,-2.26,-0.55
2022-12-08 18:24:19.8670,-0.235,0.145,-0.941,-0.4,-2.81,0.08
2022-12-08 18:24:19.8770,-0.307,0.114,-0.889,-0.09,-4.04,0.08
2022-12-08 18:24:19.8870,-0.41,0.007,-0.765,0.23,-3.87,-0.28
2022-12-08 18:24:19.8970,-0.514,0.052,-0.564,0.78,-2.96,-1.3
2022-12-08 18:24:19.9070,-0.642,0.135,-0.408,1.3,-3.54,-3.02
2022-12-08 18:24:19.9190,-0.734,0.181,-0.369,1.94,-4.46,-4.22
2022-12-08 18:24:19.9270,-0.755,0.165,-0.417,2.18,-4.98,-4.18
2022-12-08 18:24:19.9370,-0.774,0.157,-0.65,1.68,-4.89,-3.18
2022-12-08 18:24:19.9470,-0.813,0.251,-0.555,1.2,-4.89,-0.28
2022-12-08 18:24:19.9570,-0.91,0.383,-0.421,0.96,-5.87,-0.52
2022-12-08 18:24:19.9670,-0.944,0.432,-0.355,1.34,-7.16,-1.09
2022-12-08 18:24:19.9770,-0.984,0.512,-0.274,1.14,-7.54,-0.93
2022-12-08 18:24:19.9870,-1.144,0.532,-0.299,1.06,-8.12,-0.9
2022-12-08 18:24:19.9980,-1.27,0.515,-0.333,2.24,-8.02,0.14
2022-12-08 18:24:20.0070,-1.382,0.486,-0.314,3.17,-7.48,1.2
2022-12-08 18:24:20.0200,-1.474,0.464,-0.255,4.05,-6.75,1.65
2022-12-08 18:24:20.0280,-1.532,0.431,-0.17,4.8,-6.04,1.57
2022-12-08 18:24:20.0380,-1.585,0.393,-0.114,5.28,-5.21,1.1
2022-12-08 18:24:20.0480,-1.645,0.337,-0.106,5.75,-4.33,0.76
2022-12-08 18:24:20.0580,-1.652,0.275,-0.099,6.32,-3.31,0.77
2022-12-08 18:24:20.0680,-1.562,0.217,-0.089,6.4,-2.24,0.68
2022-12-08 18:24:20.0780,-1.468,0.183,-0.09,5.56,-1.26,0.51
2022-12-08 18:24:20.0880,-1.396,0.148,-0.122,4.68,-0.52,0.44
2022-12-08 18:24:20.0980,-1.351,0.081,-0.17,4.04,0.21,0.69
2022-12-08 18:24:20.1080,-1.393,-0.025,-0.227,3.67,1.24,1.11
2022-12-08 18:24:20.1180,-1.496,-0.188,-0.247,4.16,2.63,1.64
2022-12-08 18:24:20.1280,-1.648,-0.393,-0.251,5.26,4.54,1.77
2022-12-08 18:24:20.1380,-1.849,-0.674,-0.258,6.84,6.82,1.75
2022-12-08 18:24:20.1480,-2.03,-0.962,-0.16,8.88,9.77,1.73
2022-12-08 18:24:20.1580,-2.117,-1.256,0.077,10.7,12.7,0.65
2022-12-08 18:24:20.1690,-2.135,-1.469,0.413,11.72,17.55,-5.17
2022-12-08 18:24:20.1810,-2.09,-1.588,0.752,11.72,17.55,-5.17
2022-12-08 18:24:20.1890,-2.069,-1.571,0.947,11.2,18.5,-8.52
2022-12-08 18:24:20.1980,-1.92,-1.448,0.891,9.32,16.38,-9.71
2022-12-08 18:24:20.2100,-1.705,-1.241,0.746,9.32,16.38,-9.71
2022-12-08 18:24:20.2180,-1.499,-0.942,0.712,7.09,13.84,-8.12
2022-12-08 18:24:20.2280,-1.269,-0.673,0.599,4.98,10.34,-7.6
2022-12-08 18:24:20.2380,-1.085,-0.421,0.512,2.66,7.1,-6.3
2022-12-08 18:24:20.2480,-0.888,-0.281,0.396,0.83,4.01,-5.28
2022-12-08 18:24:20.2580,-0.758,-0.347,0.173,-1.08,2.02,-3.98
2022-12-08 18:24:20.2680,-0.829,0.002,0.096,-2.28,2.04,-1.66
2022-12-08 18:24:20.2780,-0.702,0.193,-0.0,-1.48,-2.01,-0.8
2022-12-08 18:24:20.2880,-0.572,0.3,0.023,-2.58,-4.47,0.21
2022-12-08 18:24:20.2980,-0.489,0.307,-0.042,-3.69,-6.05,0.06
2022-12-08 18:24:20.3080,-0.434,0.34,0.016,-4.33,-6.6,0.78
2022-12-08 18:24:20.3180,-0.516,0.286,0.006,-4.69,-7.34,0.28
2022-12-08 18:24:20.3280,-0.656,0.302,0.421,-3.73,-7.14,0.43
2022-12-08 18:24:20.3380,-0.558,0.269,1.034,-2.21,-7.59,-3.6
